Folder: pypi-mirror-373/packages/dopes/dopes-2025.1.0.tar.gz/dopes-2025.1.0/examples/data_analysis/raman_silicon/data

Note: README.md
# PyPI code 373

This repository is part of a project to make all code in PyPI as accessible as possible. For more information 
on the project and to find out how to utilise this data, see the website: https://py-code.org/

This repo contains 42561 packages uploaded to PyPI between 
2025-08-29 19:37 and 2025-09-02 22:39.

The repo is 88% (37780/42561) complete.

Package contents can be found [in the code branch](https://github.com/pypi-data/pypi-mirror-373/tree/code/packages).

A browsable package list for all repositories [all packages here](https://py-code.org/repositories/pypi-mirror-373).

File: strained_silicon_1.txt
692.206	7.66667
690.885	0.666667
689.564	1.33333
688.241	2.66667
686.917	1.66667
685.596	4.66667
684.272	3
682.948	4
681.624	5
680.299	5.33333
678.975	3
677.65	3.66667
676.323	6.66667
674.998	5
673.67	5.33333
672.344	5.33333
671.017	4.66667
669.689	6.66667
668.362	7
667.034	5.33333
665.705	3.33333
664.376	8
663.045	8
661.716	6
660.387	5
659.055	3
657.725	7.33333
656.393	3
655.063	4.66667
653.73	10
652.398	5.66667
651.065	2.66667
649.732	8.66667
648.399	7.66667
647.065	7.33333
645.729	6.66667
644.396	3
643.062	6
641.725	6.66667
640.389	1
639.054	4.66667
637.717	5.66667
636.38	3.66667
635.043	3
633.705	6
632.368	9.66667
631.03	3.33333
629.689	2.66667
628.351	6.66667
627.011	5.33333
625.672	6
624.331	7
622.99	7.66667
621.651	7.66667
620.309	11
618.967	6.33333
617.625	9
616.281	4
614.939	7.66667
613.596	11.3333
612.251	5.66667
610.908	5.66667
609.563	8
608.22	6.33333
606.874	5.33333
605.528	8.33333
604.182	4.66667
602.836	6
601.49	2.33333
600.143	8
598.794	5
597.447	4.33333
596.1	3.66667
594.75	7
593.403	4
592.053	5.33333
590.703	6.33333
589.353	5.66667
588.002	2.66667
586.651	3
585.3	1.33333
583.949	4.33333
582.598	4.33333
581.244	3.33333
579.893	4.66667
578.539	6
577.187	1.66667
575.832	2.33333
574.478	4
573.123	5.33333
571.768	5.33333
570.413	4.33333
569.057	3.33333
567.702	5.33333
566.346	7
564.988	5.66667
563.632	6.66667
562.273	5.66667
560.916	1.33333
559.558	6
558.198	5.33333
556.839	7
555.48	8.33333
554.12	8.33333
552.76	6
551.4	11.3333
550.039	11.3333
548.677	10.6667
547.316	12.6667
545.953	7.66667
544.592	10.3333
543.229	12.3333
541.865	17.6667
540.501	16.3333
539.137	19
537.773	23.6667
536.408	16.6667
535.044	26.3333
533.679	26.6667
532.312	38.6667
530.946	44
529.579	48.3333
528.213	74.6667
526.845	87.6667
525.477	161
524.111	267
522.742	550.333
521.373	1311.33
520.002	1897.33
518.633	1160.33
517.263	505.333
515.894	246.333
514.522	146.667
513.152	90.6667
511.779	68.3333
510.407	53
509.034	40
507.663	30.6667
506.29	25.3333
504.917	26
503.543	20
502.167	16.6667
500.793	13.3333
499.419	13.3333
498.043	13.3333
496.668	14.3333
495.291	14.6667
493.916	11.6667
492.539	12.6667
491.161	11.3333
489.783	11
488.405	9.66667
487.027	10
485.649	7.66667
484.268	5
482.889	7
481.51	6.33333
480.129	9.66667
478.75	6.33333
477.368	8.66667
475.986	8.66667
474.604	8.33333
473.221	4
471.839	5.33333
470.456	3.66667
469.073	5
467.69	5
466.307	5
464.921	4
463.537	2.66667
462.151	5.66667
460.767	6.66667
459.38	5.33333
457.993	7
456.606	2.33333
455.219	4.66667
453.832	5.33333
452.444	7
451.056	6
449.668	5.33333
448.278	7.33333
446.89	6
445.499	5
444.11	7.33333
442.719	6.33333
441.327	5
439.936	7.66667
438.544	7.66667
437.152	7
435.76	6.33333
434.367	6.33333
432.975	7.66667
431.579	7.33333
430.186	5.33333
428.791	8.33333
427.398	7
426.002	7.33333
424.606	7.33333
423.211	3.33333
421.815	5
420.418	6.66667
419.021	5.33333
417.624	3.66667
416.225	8.66667
414.827	8.33333
413.43	7.66667
412.029	6
410.631	4.66667
409.231	6.33333
407.83	3.66667
406.429	3
405.03	6
403.629	6.33333
402.227	7.66667
400.825	9
399.421	6.66667
398.019	5
396.617	4.66667
395.212	9
393.809	7.33333
392.404	6
391	5.33333
389.595	7.66667
388.189	6
386.783	6
385.377	6.66667
383.97	7.66667
382.563	8
381.157	7.66667
379.747	5.33333
378.34	5.33333
376.932	7
375.522	8.33333
374.112	9.66667
372.704	5.66667
371.294	9
369.883	5.33333
368.472	7.66667
367.061	7.33333
365.649	6.66667
364.238	5.66667
362.826	4.33333
361.411	6.33333
359.999	5
358.585	6.33333
357.172	4.66667
355.757	7.33333
354.342	5.66667
352.928	5.33333
351.513	8
350.097	9.66667
348.68	7.66667
347.264	9.33333
345.845	11.3333
344.429	5.66667
343.012	7.33333
341.948	6.33333

File: strained_silicon_6.txt
692.206	2.33333
690.885	7
689.564	5
688.241	10.3333
686.917	5.66667
685.596	7.33333
684.272	7.66667
682.948	5.33333
681.624	8.33333
680.299	7.66667
678.975	7.66667
677.65	9
676.323	7
674.998	5.33333
673.67	5
672.344	6.33333
671.017	13
669.689	7.33333
668.362	8
667.034	10.6667
665.705	8.66667
664.376	9
663.045	6
661.716	10
660.387	9.33333
659.055	9.66667
657.725	8.66667
656.393	4.33333
655.063	8
653.73	8.33333
652.398	10
651.065	9.33333
649.732	11.3333
648.399	8.66667
647.065	6.33333
645.729	7.33333
644.396	7.66667
643.062	9
641.725	6.33333
640.389	9.33333
639.054	9.66667
637.717	8
636.38	8.66667
635.043	7.33333
633.705	10.3333
632.368	7.33333
631.03	3.33333
629.689	6.33333
628.351	8.66667
627.011	5.66667
625.672	8.33333
624.331	8
622.99	10.3333
621.651	8.33333
620.309	6
618.967	10
617.625	5.33333
616.281	10.6667
614.939	7
613.596	9.33333
612.251	7.66667
610.908	7.66667
609.563	7.33333
608.22	6
606.874	8.33333
605.528	4.33333
604.182	10
602.836	11.6667
601.49	10.3333
600.143	4.33333
598.794	5.33333
597.447	8
596.1	6.33333
594.75	6
593.403	7
592.053	11
590.703	6.66667
589.353	3.33333
588.002	6
586.651	6.66667
585.3	5.66667
583.949	8
582.598	8.33333
581.244	7
579.893	9.66667
578.539	4
577.187	8.66667
575.832	5
574.478	6
573.123	7.66667
571.768	8.66667
570.413	7
569.057	9
567.702	7
566.346	7.66667
564.988	11.3333
563.632	9
562.273	9
560.916	9
559.558	8
558.198	10.3333
556.839	11.3333
555.48	9.66667
554.12	7.33333
552.76	7.33333
551.4	9.66667
550.039	13.6667
548.677	13.3333
547.316	9
545.953	13.6667
544.592	14.3333
543.229	13.3333
541.865	16.3333
540.501	14
539.137	17.3333
537.773	19
536.408	21.6667
535.044	22.3333
533.679	25.6667
532.312	27.6667
530.946	36.3333
529.579	42
528.213	46.6667
526.845	68.6667
525.477	103.667
524.111	163.333
522.742	302
521.373	682
520.002	1026
518.633	819.333
517.263	594.333
515.894	746.667
514.522	714
513.152	494
511.779	251.667
510.407	134
509.034	78
507.663	57.6667
506.29	43
504.917	34.3333
503.543	31.3333
502.167	24.3333
500.793	23
499.419	18.6667
498.043	18.3333
496.668	18.6667
495.291	14.6667
493.916	14.6667
492.539	17.6667
491.161	18
489.783	11
488.405	12.6667
487.027	12
485.649	14
484.268	12.6667
482.889	11.6667
481.51	14.6667
480.129	12.3333
478.75	7.66667
477.368	6
475.986	8
474.604	7.66667
473.221	8.66667
471.839	10.3333
470.456	5.66667
469.073	9
467.69	8.33333
466.307	9.66667
464.921	11
463.537	7.66667
462.151	12.6667
460.767	6.66667
459.38	7.66667
457.993	7.33333
456.606	5.66667
455.219	6.66667
453.832	4.66667
452.444	8
451.056	9.66667
449.668	8.33333
448.278	11.3333
446.89	6.66667
445.499	6
444.11	9.66667
442.719	10.6667
441.327	9.66667
439.936	10
438.544	5
437.152	12
435.76	11.6667
434.367	9
432.975	8
431.579	9.33333
430.186	8.33333
428.791	9.33333
427.398	7
426.002	8.66667
424.606	8.66667
423.211	8.33333
421.815	8
420.418	8
419.021	7.33333
417.624	6.66667
416.225	6.66667
414.827	9
413.43	8.33333
412.029	7.66667
410.631	8
409.231	9.33333
407.83	10.3333
406.429	6
405.03	11.3333
403.629	5.66667
402.227	8.33333
400.825	10.6667
399.421	7
398.019	6.33333
396.617	6.33333
395.212	5.66667
393.809	10.3333
392.404	6.33333
391	9.66667
389.595	8.33333
388.189	8.66667
386.783	8.66667
385.377	9.66667
383.97	9.33333
382.563	8
381.157	10
379.747	8
378.34	10
376.932	8.66667
375.522	8.66667
374.112	10.6667
372.704	8
371.294	10.6667
369.883	11.6667
368.472	12
367.061	9
365.649	8
364.238	14
362.826	11.3333
361.411	9.66667
359.999	12
358.585	8.66667
357.172	10.3333
355.757	6.66667
354.342	9
352.928	8.66667
351.513	9.33333
350.097	14
348.68	8.66667
347.264	13.6667
345.845	6.33333
344.429	9.33333
343.012	8.66667
341.948	5.66667