Folder: pypi-mirror-373/packages/dopes/dopes-2025.1.0.tar.gz/dopes-2025.1.0/examples/data_analysis/raman_silicon/data/514nm_1%_15s (part 2)

File: W3L150_4_bottom.txt
692.206	-3
690.885	-0.333333
689.564	-1
688.241	0.333333
686.917	0
685.596	-1.33333
684.272	0.333333
682.948	1.33333
681.624	-0.333333
680.299	-1.33333
678.975	0
677.65	0.333333
676.323	-0.333333
674.998	-1.33333
673.67	-1
672.344	1
671.017	1
669.689	2.66667
668.362	2.66667
667.034	-0.666667
665.705	-2.33333
664.376	0.333333
663.045	0.333333
661.716	-2.66667
660.387	0.333333
659.055	2
657.725	2
656.393	1.66667
655.063	-0.333333
653.73	2.33333
652.398	0.666667
651.065	0
649.732	1.66667
648.399	1.66667
647.065	4.66667
645.729	-0.666667
644.396	0.666667
643.062	-0.333333
641.725	-1.66667
640.389	1
639.054	2.33333
637.717	-1.33333
636.38	-0.666667
635.043	1
633.705	0.333333
632.368	1.33333
631.03	2.33333
629.689	1
628.351	-1
627.011	3
625.672	2
624.331	1
622.99	4.33333
621.651	0.333333
620.309	5
618.967	1.66667
617.625	0.666667
616.281	1
614.939	2.66667
613.596	-0.666667
612.251	0
610.908	0
609.563	-0.333333
608.22	1
606.874	1.33333
605.528	0.666667
604.182	0.333333
602.836	1.66667
601.49	-0.333333
600.143	0.333333
598.794	-0.333333
597.447	-0.333333
596.1	-0.333333
594.75	2
593.403	-1.33333
592.053	-0.333333
590.703	1.66667
589.353	1.66667
588.002	1.33333
586.651	1
585.3	2
583.949	-0.666667
582.598	1.33333
581.244	-1.66667
579.893	0.333333
578.539	-1.66667
577.187	0
575.832	-2
574.478	0.333333
573.123	1.33333
571.768	-1
570.413	-0.333333
569.057	0.333333
567.702	0.666667
566.346	-1.66667
564.988	2.33333
563.632	-0.666667
562.273	1.33333
560.916	0.666667
559.558	3.33333
558.198	2.66667
556.839	3.33333
555.48	3.66667
554.12	4
552.76	4.66667
551.4	3.66667
550.039	3
548.677	6.66667
547.316	6
545.953	3.66667
544.592	5.66667
543.229	7
541.865	9
540.501	9.66667
539.137	8
537.773	13.3333
536.408	13.3333
535.044	14.3333
533.679	21.3333
532.312	24
530.946	33.3333
529.579	35.6667
528.213	58
526.845	69.3333
525.477	110.333
524.111	203.667
522.742	422.667
521.373	1002.67
520.002	1466.33
518.633	905.667
517.263	379.333
515.894	191
514.522	110.667
513.152	59.6667
511.779	49.6667
510.407	40.3333
509.034	29
507.663	27
506.29	17
504.917	14
503.543	11
502.167	12
500.793	6.33333
499.419	12
498.043	8
496.668	6.33333
495.291	8.33333
493.916	4.33333
492.539	2.33333
491.161	4.33333
489.783	1.33333
488.405	5
487.027	3.33333
485.649	6.33333
484.268	1.33333
482.889	2
481.51	2.33333
480.129	2
478.75	-0.333333
477.368	3.33333
475.986	-0.666667
474.604	3.66667
473.221	3.66667
471.839	0
470.456	-0.333333
469.073	2.66667
467.69	-0.333333
466.307	1.33333
464.921	-0.666667
463.537	2.66667
462.151	1
460.767	2.33333
459.38	-1
457.993	0.666667
456.606	3.66667
455.219	-2
453.832	1.33333
452.444	1
451.056	0
449.668	0.666667
448.278	0.666667
446.89	-1.66667
445.499	1.33333
444.11	0.333333
442.719	1
441.327	0
439.936	2.33333
438.544	3.66667
437.152	3
435.76	3.66667
434.367	0.666667
432.975	1.33333
431.579	0.666667
430.186	5.66667
428.791	1
427.398	1
426.002	0
424.606	2.33333
423.211	3.66667
421.815	2.33333
420.418	0.666667
419.021	0.333333
417.624	0
416.225	2.66667
414.827	-1.66667
413.43	0
412.029	2.66667
410.631	1
409.231	1.66667
407.83	2.33333
406.429	-0.333333
405.03	1.66667
403.629	0
402.227	0.666667
400.825	2.66667
399.421	-0.333333
398.019	2
396.617	1
395.212	1.33333
393.809	2
392.404	0.333333
391	3.66667
389.595	2.33333
388.189	1
386.783	1.33333
385.377	-1.66667
383.97	1.33333
382.563	1
381.157	-0.333333
379.747	3
378.34	3.66667
376.932	1.33333
375.522	-1.66667
374.112	3.33333
372.704	-0.666667
371.294	1.66667
369.883	1.33333
368.472	2
367.061	2.66667
365.649	0
364.238	4
362.826	1.33333
361.411	1
359.999	2.66667
358.585	1
357.172	-0.333333
355.757	2
354.342	2.66667
352.928	1.33333
351.513	3
350.097	0
348.68	3.66667
347.264	2.66667
345.845	1
344.429	4
343.012	4.66667
341.948	1

File: W3L150_4_top.txt
692.206	0.666667
690.885	0.666667
689.564	-1
688.241	-2.33333
686.917	-0.666667
685.596	-1.66667
684.272	-0.666667
682.948	1
681.624	-0.333333
680.299	-0.666667
678.975	0.333333
677.65	1
676.323	1.66667
674.998	0.333333
673.67	-0.666667
672.344	-2.33333
671.017	0.666667
669.689	0
668.362	2.66667
667.034	1
665.705	1.33333
664.376	-0.333333
663.045	-0.666667
661.716	0.333333
660.387	-2
659.055	-0.333333
657.725	0.333333
656.393	-2.33333
655.063	-0.333333
653.73	1.33333
652.398	1.33333
651.065	-1
649.732	1.66667
648.399	-2.66667
647.065	2
645.729	-1.66667
644.396	-0.666667
643.062	-1
641.725	-1.33333
640.389	-1
639.054	1.33333
637.717	1.66667
636.38	2
635.043	0.333333
633.705	0.333333
632.368	0
631.03	-1.33333
629.689	-1
628.351	1.33333
627.011	-0.666667
625.672	0.333333
624.331	1
622.99	1.33333
621.651	2.66667
620.309	1
618.967	1
617.625	2
616.281	-0.666667
614.939	3.66667
613.596	2
612.251	2
610.908	1.33333
609.563	1.33333
608.22	1.66667
606.874	-0.333333
605.528	1.66667
604.182	1
602.836	0
601.49	1
600.143	0.666667
598.794	-2
597.447	0.666667
596.1	1.33333
594.75	2.33333
593.403	-3.33333
592.053	1
590.703	-1
589.353	-0.666667
588.002	-1
586.651	-1
585.3	0.666667
583.949	-1.33333
582.598	0.666667
581.244	1
579.893	-0.666667
578.539	1.66667
577.187	-1.33333
575.832	0.666667
574.478	0.666667
573.123	2.33333
571.768	-2.66667
570.413	0
569.057	3.66667
567.702	0.666667
566.346	1
564.988	0.666667
563.632	1
562.273	0.333333
560.916	1.33333
559.558	2.33333
558.198	-1.33333
556.839	1.66667
555.48	3.33333
554.12	3
552.76	1
551.4	2.33333
550.039	4
548.677	3.66667
547.316	5.33333
545.953	6
544.592	6.66667
543.229	6
541.865	4.33333
540.501	2.66667
539.137	9.33333
537.773	7
536.408	15
535.044	16.3333
533.679	16.3333
532.312	21.3333
530.946	25.6667
529.579	28.3333
528.213	46.3333
526.845	63.6667
525.477	96.6667
524.111	190.667
522.742	379.667
521.373	905.333
520.002	1359
518.633	831.667
517.263	344
515.894	171
514.522	85.6667
513.152	59
511.779	40.3333
510.407	30
509.034	25.3333
507.663	16
506.29	11.3333
504.917	14.6667
503.543	10
502.167	9
500.793	5.66667
499.419	7
498.043	4.66667
496.668	6.33333
495.291	4.66667
493.916	5
492.539	6
491.161	8
489.783	3.33333
488.405	4.33333
487.027	2.33333
485.649	4
484.268	2
482.889	1.33333
481.51	2
480.129	2
478.75	-0.666667
477.368	2
475.986	2.33333
474.604	4
473.221	0
471.839	0.666667
470.456	1.66667
469.073	0.333333
467.69	1.33333
466.307	2
464.921	-0.666667
463.537	1.66667
462.151	-0.333333
460.767	-2.33333
459.38	1
457.993	0
456.606	-1.33333
455.219	2
453.832	1
452.444	1.33333
451.056	-1
449.668	0.333333
448.278	-0.333333
446.89	1.66667
445.499	1.33333
444.11	1.66667
442.719	0.666667
441.327	0.333333
439.936	1.33333
438.544	0.666667
437.152	1.33333
435.76	-0.666667
434.367	1.33333
432.975	1.33333
431.579	1.66667
430.186	-1.33333
428.791	-0.333333
427.398	3.33333
426.002	2.66667
424.606	1
423.211	0.333333
421.815	1.33333
420.418	3.33333
419.021	1.33333
417.624	4.33333
416.225	2
414.827	0.666667
413.43	0.333333
412.029	-1
410.631	1
409.231	2
407.83	0
406.429	1.66667
405.03	1.66667
403.629	-1.66667
402.227	0.666667
400.825	-0.666667
399.421	2.66667
398.019	0.333333
396.617	-2
395.212	-1.33333
393.809	-0.666667
392.404	0
391	-0.333333
389.595	0.666667
388.189	0.666667
386.783	2
385.377	1.66667
383.97	-0.666667
382.563	-1.66667
381.157	2.66667
379.747	5.33333
378.34	-0.666667
376.932	1
375.522	0
374.112	4.66667
372.704	2
371.294	1.66667
369.883	2.66667
368.472	0.666667
367.061	2
365.649	0.666667
364.238	2.33333
362.826	3.33333
361.411	0.333333
359.999	2.33333
358.585	0.666667
357.172	1.66667
355.757	3
354.342	1.66667
352.928	1.66667
351.513	3.33333
350.097	1.33333
348.68	1.33333
347.264	0.666667
345.845	1.33333
344.429	0
343.012	3
341.948	2.66667

File: W3L150_5_top.txt
692.206	-1
690.885	-2.33333
689.564	-0.333333
688.241	-1
686.917	1
685.596	-3
684.272	-1.33333
682.948	1.33333
681.624	3
680.299	-1
678.975	0.333333
677.65	1
676.323	-1
674.998	3.33333
673.67	-1
672.344	1.33333
671.017	1.66667
669.689	0.666667
668.362	2
667.034	1.33333
665.705	2.33333
664.376	1.33333
663.045	0
661.716	-1
660.387	2.33333
659.055	2.66667
657.725	2
656.393	0.333333
655.063	1.66667
653.73	1
652.398	1.66667
651.065	3
649.732	0.333333
648.399	2.33333
647.065	2.66667
645.729	-1.33333
644.396	1.33333
643.062	0
641.725	0.666667
640.389	0.333333
639.054	0.333333
637.717	0.666667
636.38	-1
635.043	-1
633.705	0.666667
632.368	0
631.03	-0.333333
629.689	2
628.351	0
627.011	1.33333
625.672	0.666667
624.331	1
622.99	3
621.651	-1.33333
620.309	1.33333
618.967	2
617.625	3
616.281	2.33333
614.939	2
613.596	1.33333
612.251	4.33333
610.908	3
609.563	3
608.22	0.333333
606.874	1
605.528	0.666667
604.182	1
602.836	0
601.49	1.66667
600.143	1.33333
598.794	-4
597.447	0.333333
596.1	1
594.75	2
593.403	0.666667
592.053	2
590.703	1.33333
589.353	3
588.002	-0.333333
586.651	2.33333
585.3	-1
583.949	-0.666667
582.598	0.333333
581.244	1.66667
579.893	-1.66667
578.539	0.666667
577.187	2.33333
575.832	-1.66667
574.478	1.33333
573.123	1
571.768	-2
570.413	2.33333
569.057	-1.33333
567.702	0.333333
566.346	-0.333333
564.988	-0.333333
563.632	2.66667
562.273	2.33333
560.916	0.333333
559.558	4
558.198	3.33333
556.839	2.33333
555.48	1.33333
554.12	3.33333
552.76	3
551.4	5.33333
550.039	4.33333
548.677	6.33333
547.316	3.33333
545.953	3.33333
544.592	6.33333
543.229	8.66667
541.865	8.33333
540.501	8
539.137	8.33333
537.773	12.3333
536.408	16
535.044	15.6667
533.679	19.3333
532.312	21.6667
530.946	30.3333
529.579	36.3333
528.213	47
526.845	62
525.477	104
524.111	174
522.742	382
521.373	899.333
520.002	1383.67
518.633	864.667
517.263	356.333
515.894	175
514.522	104.333
513.152	63
511.779	46.6667
510.407	33.6667
509.034	25.6667
507.663	17.3333
506.29	18.3333
504.917	17
503.543	11.6667
502.167	9
500.793	10
499.419	6.66667
498.043	5.33333
496.668	7
495.291	5.66667
493.916	5.66667
492.539	4
491.161	5
489.783	5.33333
488.405	2.66667
487.027	6.33333
485.649	4.33333
484.268	2.66667
482.889	4.33333
481.51	2
480.129	-1.66667
478.75	3
477.368	3.66667
475.986	3
474.604	2.33333
473.221	4
471.839	1.33333
470.456	0.333333
469.073	3
467.69	0.666667
466.307	1
464.921	2.33333
463.537	1.33333
462.151	-1
460.767	0.333333
459.38	1
457.993	-1
456.606	2.33333
455.219	2
453.832	4
452.444	2
451.056	2.66667
449.668	0
448.278	2.33333
446.89	1.66667
445.499	-1.66667
444.11	0
442.719	2.66667
441.327	3
439.936	-2.66667
438.544	2.33333
437.152	-0.333333
435.76	1
434.367	1.33333
432.975	0.333333
431.579	1
430.186	1.66667
428.791	3.66667
427.398	1
426.002	1.33333
424.606	3.66667
423.211	1.33333
421.815	1.66667
420.418	2
419.021	1.66667
417.624	-3
416.225	-2
414.827	0.666667
413.43	1.33333
412.029	2.33333
410.631	2.33333
409.231	2.66667
407.83	2
406.429	1.66667
405.03	0.333333
403.629	1.33333
402.227	1.66667
400.825	1.66667
399.421	1
398.019	2.33333
396.617	2
395.212	0.333333
393.809	3.33333
392.404	-0.333333
391	2.33333
389.595	1.33333
388.189	2.66667
386.783	1
385.377	-1.66667
383.97	0.666667
382.563	1.66667
381.157	1
379.747	4.66667
378.34	2.66667
376.932	1.33333
375.522	2
374.112	2
372.704	3
371.294	2
369.883	1.66667
368.472	1.33333
367.061	2.66667
365.649	1
364.238	3.33333
362.826	0.666667
361.411	4
359.999	-0.333333
358.585	2.66667
357.172	3
355.757	0
354.342	4
352.928	3
351.513	1
350.097	3
348.68	4
347.264	1.33333
345.845	3.66667
344.429	2.33333
343.012	0.666667
341.948	1.66667

File: W3L150_6_bottom.txt
692.206	-0.333333
690.885	-0.333333
689.564	-0.666667
688.241	1.66667
686.917	-1.33333
685.596	-0.666667
684.272	2
682.948	1.33333
681.624	0.666667
680.299	1.66667
678.975	0
677.65	2.66667
676.323	1.33333
674.998	0
673.67	2.66667
672.344	0.333333
671.017	-1.33333
669.689	1.66667
668.362	4
667.034	1.33333
665.705	2.33333
664.376	0.333333
663.045	0.666667
661.716	2.66667
660.387	1.66667
659.055	2
657.725	1.66667
656.393	2.66667
655.063	1
653.73	-2
652.398	1.33333
651.065	2.66667
649.732	-1.66667
648.399	2.33333
647.065	1
645.729	0.666667
644.396	0
643.062	0
641.725	4.66667
640.389	4.66667
639.054	3
637.717	1.66667
636.38	0.666667
635.043	1
633.705	0.666667
632.368	-1
631.03	1.66667
629.689	2.33333
628.351	2
627.011	1
625.672	1
624.331	0.333333
622.99	3.33333
621.651	1.66667
620.309	5.33333
618.967	3.66667
617.625	4.66667
616.281	2.66667
614.939	4.66667
613.596	2.66667
612.251	2.33333
610.908	4.66667
609.563	3
608.22	0.666667
606.874	2.33333
605.528	-1
604.182	1
602.836	0.666667
601.49	0.666667
600.143	1
598.794	1
597.447	2.66667
596.1	1.33333
594.75	0.666667
593.403	1.33333
592.053	2
590.703	-2.66667
589.353	0.333333
588.002	-1.66667
586.651	0.666667
585.3	0.666667
583.949	1.33333
582.598	1.33333
581.244	-2.66667
579.893	-2
578.539	-0.333333
577.187	-0.666667
575.832	2.33333
574.478	0.333333
573.123	-2.66667
571.768	1.66667
570.413	0.333333
569.057	2
567.702	0.666667
566.346	-0.333333
564.988	6
563.632	1.66667
562.273	4
560.916	4.33333
559.558	3
558.198	0.333333
556.839	2
555.48	5.33333
554.12	5
552.76	5.33333
551.4	4
550.039	7.33333
548.677	7.66667
547.316	5.66667
545.953	8
544.592	7.66667
543.229	8
541.865	10.6667
540.501	13.6667
539.137	12.3333
537.773	16
536.408	16
535.044	16
533.679	24.3333
532.312	25.6667
530.946	37.6667
529.579	50
528.213	65.3333
526.845	96.3333
525.477	138.667
524.111	249.667
522.742	540.333
521.373	1254
520.002	1825.33
518.633	1176.67
517.263	495.667
515.894	237.333
514.522	136.667
513.152	88
511.779	59.6667
510.407	49
509.034	33.6667
507.663	25.3333
506.29	27.3333
504.917	22.6667
503.543	17.6667
502.167	14.3333
500.793	8.33333
499.419	10.6667
498.043	8
496.668	10.3333
495.291	7.33333
493.916	8.33333
492.539	7
491.161	8.33333
489.783	3.33333
488.405	4
487.027	3.33333
485.649	5.33333
484.268	5.33333
482.889	2.66667
481.51	5
480.129	1
478.75	2
477.368	2.66667
475.986	1.66667
474.604	2
473.221	4.66667
471.839	0.666667
470.456	-0.333333
469.073	1.66667
467.69	2
466.307	1.33333
464.921	1
463.537	3
462.151	-0.666667
460.767	1.33333
459.38	0.333333
457.993	2
456.606	0.666667
455.219	0.333333
453.832	-0.666667
452.444	1.33333
451.056	-0.666667
449.668	0.333333
448.278	4.33333
446.89	2.33333
445.499	1
444.11	3
442.719	2.33333
441.327	1
439.936	1.66667
438.544	6
437.152	2.33333
435.76	3
434.367	0.666667
432.975	0.666667
431.579	2.66667
430.186	2
428.791	2
427.398	-0.333333
426.002	5.33333
424.606	0.666667
423.211	2
421.815	4.33333
420.418	1.33333
419.021	2.66667
417.624	-2
416.225	1.66667
414.827	3.33333
413.43	2.33333
412.029	2.66667
410.631	0
409.231	4
407.83	3.33333
406.429	3.66667
405.03	2.33333
403.629	2.66667
402.227	2
400.825	2.33333
399.421	1
398.019	1
396.617	1
395.212	0.666667
393.809	2.66667
392.404	0.666667
391	0.666667
389.595	2.66667
388.189	2.66667
386.783	2.66667
385.377	4.66667
383.97	2
382.563	1.33333
381.157	0.333333
379.747	1.66667
378.34	5.33333
376.932	3.33333
375.522	4.66667
374.112	1.66667
372.704	1.33333
371.294	4
369.883	5
368.472	2
367.061	2.66667
365.649	2
364.238	4.66667
362.826	4
361.411	3
359.999	6.33333
358.585	4
357.172	0.333333
355.757	3.33333
354.342	5.33333
352.928	3.33333
351.513	2.33333
350.097	4.66667
348.68	2.33333
347.264	0
345.845	0.333333
344.429	1.33333
343.012	1.33333
341.948	3

File: W3L150_6_top.txt
692.206	-0.666667
690.885	1.66667
689.564	-1.33333
688.241	-0.333333
686.917	-2
685.596	1
684.272	0
682.948	0.333333
681.624	3.33333
680.299	-1.33333
678.975	-0.333333
677.65	1.33333
676.323	0
674.998	1.66667
673.67	3.33333
672.344	1.33333
671.017	-0.333333
669.689	-1.66667
668.362	-1
667.034	1.66667
665.705	2.66667
664.376	-1.66667
663.045	2
661.716	1
660.387	-0.666667
659.055	4
657.725	3.33333
656.393	0.666667
655.063	-2
653.73	3.66667
652.398	1.33333
651.065	1
649.732	2.33333
648.399	2
647.065	-0.333333
645.729	1.66667
644.396	3
643.062	-1
641.725	1.66667
640.389	2.33333
639.054	0.333333
637.717	1.33333
636.38	0.333333
635.043	4.33333
633.705	1.33333
632.368	-0.333333
631.03	0.333333
629.689	5
628.351	2
627.011	4.33333
625.672	0.666667
624.331	-0.333333
622.99	0
621.651	1
620.309	0
618.967	2
617.625	2.66667
616.281	4
614.939	1.66667
613.596	3.66667
612.251	2.33333
610.908	-1
609.563	3.66667
608.22	1.66667
606.874	0
605.528	-1
604.182	-0.333333
602.836	-1
601.49	-1
600.143	0.333333
598.794	0.333333
597.447	0.333333
596.1	0.333333
594.75	0.666667
593.403	0.333333
592.053	1.33333
590.703	0
589.353	2.33333
588.002	-1
586.651	1
585.3	3
583.949	2.66667
582.598	0.333333
581.244	2
579.893	1.33333
578.539	2
577.187	-0.666667
575.832	-1
574.478	0
573.123	1.33333
571.768	-2
570.413	1.66667
569.057	1
567.702	3.66667
566.346	1
564.988	4.33333
563.632	2.33333
562.273	2.33333
560.916	1
559.558	0
558.198	1.66667
556.839	5.66667
555.48	5.33333
554.12	5
552.76	5
551.4	6
550.039	6.33333
548.677	4.66667
547.316	7.33333
545.953	7.66667
544.592	7.66667
543.229	8.66667
541.865	9.33333
540.501	12.3333
539.137	9
537.773	16
536.408	16.3333
535.044	20.3333
533.679	20.6667
532.312	23
530.946	34
529.579	41.3333
528.213	54.6667
526.845	81
525.477	119
524.111	214.333
522.742	440.667
521.373	1056.33
520.002	1611.33
518.633	1039
517.263	438
515.894	206.333
514.522	122.333
513.152	78.6667
511.779	55.6667
510.407	40
509.034	33.6667
507.663	29.3333
506.29	22
504.917	14.3333
503.543	16
502.167	12
500.793	12.3333
499.419	7.66667
498.043	11.3333
496.668	6.33333
495.291	7.33333
493.916	7.66667
492.539	8.33333
491.161	5
489.783	3.33333
488.405	3.66667
487.027	5.33333
485.649	6.66667
484.268	5
482.889	7
481.51	1.66667
480.129	2
478.75	3
477.368	4.33333
475.986	2
474.604	2.33333
473.221	3.33333
471.839	3.66667
470.456	3.33333
469.073	1
467.69	3
466.307	2
464.921	2.33333
463.537	2
462.151	2
460.767	-1
459.38	1.33333
457.993	-1
456.606	1.33333
455.219	-1.66667
453.832	5
452.444	-1.66667
451.056	3.33333
449.668	4.66667
448.278	1.66667
446.89	3.66667
445.499	0.666667
444.11	2.66667
442.719	1.33333
441.327	0
439.936	1.66667
438.544	-0.666667
437.152	5.66667
435.76	1.33333
434.367	2.66667
432.975	3.33333
431.579	1.33333
430.186	4.66667
428.791	5.33333
427.398	0.333333
426.002	3.66667
424.606	0.333333
423.211	5
421.815	2.33333
420.418	4.33333
419.021	1.66667
417.624	1
416.225	3
414.827	2.66667
413.43	1.33333
412.029	0.333333
410.631	1.33333
409.231	0.333333
407.83	4.66667
406.429	3.33333
405.03	3.33333
403.629	3
402.227	3
400.825	4.33333
399.421	2
398.019	3
396.617	0
395.212	0
393.809	3.33333
392.404	0
391	2.66667
389.595	2
388.189	3.66667
386.783	1
385.377	2.33333
383.97	1
382.563	2.33333
381.157	1.33333
379.747	3
378.34	-1
376.932	2.33333
375.522	4.33333
374.112	2.66667
372.704	4
371.294	0.333333
369.883	2
368.472	3.33333
367.061	4.33333
365.649	3.66667
364.238	3
362.826	3
361.411	4.66667
359.999	2.33333
358.585	4
357.172	1.33333
355.757	1.66667
354.342	3
352.928	2
351.513	1.33333
350.097	4.33333
348.68	4
347.264	0.333333
345.845	2.66667
344.429	4.66667
343.012	5
341.948	3.33333

File: W3L150_7_bottom.txt
692.206	1
690.885	2.66667
689.564	-0.333333
688.241	0.666667
686.917	1
685.596	0
684.272	0.666667
682.948	-1
681.624	0.666667
680.299	2.66667
678.975	3.33333
677.65	-0.333333
676.323	3.66667
674.998	1.66667
673.67	0.666667
672.344	2
671.017	0.666667
669.689	2.33333
668.362	0.666667
667.034	0.333333
665.705	1.33333
664.376	1.33333
663.045	0.333333
661.716	0.333333
660.387	1.33333
659.055	0.333333
657.725	-0.333333
656.393	3
655.063	1
653.73	3
652.398	1
651.065	4
649.732	1.33333
648.399	0.333333
647.065	4.33333
645.729	3
644.396	-1
643.062	1.66667
641.725	2
640.389	2.33333
639.054	1
637.717	1.66667
636.38	2
635.043	2.66667
633.705	2.66667
632.368	0.666667
631.03	2.66667
629.689	4.33333
628.351	2.33333
627.011	1
625.672	3.33333
624.331	2
622.99	2
621.651	4.66667
620.309	5
618.967	2.33333
617.625	1.66667
616.281	6.66667
614.939	1.66667
613.596	2.66667
612.251	1.33333
610.908	1
609.563	1.66667
608.22	3
606.874	0.333333
605.528	4.33333
604.182	2
602.836	-2
601.49	1.33333
600.143	3.66667
598.794	0.333333
597.447	1
596.1	2.33333
594.75	0.666667
593.403	3
592.053	0.333333
590.703	0.666667
589.353	2
588.002	2.33333
586.651	0.666667
585.3	2
583.949	-0.333333
582.598	-1
581.244	1.66667
579.893	0.666667
578.539	1.33333
577.187	0.666667
575.832	3
574.478	4
573.123	0
571.768	-0.333333
570.413	1.33333
569.057	5
567.702	2
566.346	3.33333
564.988	1.33333
563.632	3.33333
562.273	2.33333
560.916	0.333333
559.558	2
558.198	2.33333
556.839	6.66667
555.48	3.66667
554.12	6.33333
552.76	1.33333
551.4	5.33333
550.039	5.66667
548.677	4.66667
547.316	6
545.953	7.66667
544.592	10
543.229	9
541.865	15
540.501	10.6667
539.137	13.6667
537.773	18
536.408	18
535.044	26
533.679	24.6667
532.312	33.3333
530.946	35.3333
529.579	44.3333
528.213	67
526.845	87.6667
525.477	146
524.111	256.333
522.742	492.333
521.373	1162
520.002	1859.67
518.633	1306.33
517.263	570.667
515.894	278.667
514.522	151
513.152	102.667
511.779	74.6667
510.407	54.3333
509.034	41.3333
507.663	32.3333
506.29	22.6667
504.917	21
503.543	18.3333
502.167	17.3333
500.793	12
499.419	16.6667
498.043	10
496.668	9.66667
495.291	11.3333
493.916	8
492.539	7
491.161	7
489.783	4.66667
488.405	7.66667
487.027	7
485.649	6.33333
484.268	5
482.889	3.66667
481.51	2.66667
480.129	5
478.75	2.33333
477.368	5.33333
475.986	0.666667
474.604	4
473.221	5
471.839	6
470.456	4.66667
469.073	3.33333
467.69	4
466.307	3.33333
464.921	4
463.537	2.33333
462.151	2
460.767	1
459.38	1
457.993	-0.333333
456.606	-1
455.219	2
453.832	3.66667
452.444	1.33333
451.056	-0.666667
449.668	2.33333
448.278	0.666667
446.89	2
445.499	1.66667
444.11	3
442.719	1.33333
441.327	5
439.936	3.33333
438.544	3
437.152	4.66667
435.76	5.33333
434.367	3.66667
432.975	2.33333
431.579	4
430.186	4.33333
428.791	3.66667
427.398	5
426.002	2
424.606	-0.333333
423.211	2
421.815	3.33333
420.418	0.333333
419.021	3.33333
417.624	2.33333
416.225	2
414.827	0.333333
413.43	4
412.029	3
410.631	2
409.231	3.33333
407.83	5
406.429	4.66667
405.03	3.33333
403.629	4.66667
402.227	2.33333
400.825	4.66667
399.421	5
398.019	5.66667
396.617	3.66667
395.212	3.66667
393.809	3
392.404	2.33333
391	3.33333
389.595	2
388.189	2.33333
386.783	2
385.377	1.33333
383.97	-0.333333
382.563	3.33333
381.157	4.66667
379.747	5
378.34	2.66667
376.932	2.66667
375.522	2.66667
374.112	4.33333
372.704	4
371.294	4
369.883	3.33333
368.472	3.66667
367.061	3.33333
365.649	4
364.238	3
362.826	2.66667
361.411	4
359.999	5
358.585	4
357.172	2
355.757	4.33333
354.342	3.33333
352.928	4.33333
351.513	4.33333
350.097	7.33333
348.68	4.33333
347.264	3
345.845	2
344.429	4.33333
343.012	4.66667
341.948	1.33333

File: W3L150_7_top.txt
692.206	4.33333
690.885	4.66667
689.564	5.66667
688.241	4.66667
686.917	6
685.596	3
684.272	7.33333
682.948	5.33333
681.624	6.66667
680.299	7.66667
678.975	6
677.65	3.66667
676.323	7.33333
674.998	3.33333
673.67	9.33333
672.344	3.33333
671.017	5
669.689	5.66667
668.362	2.66667
667.034	4.66667
665.705	5
664.376	7.66667
663.045	8.66667
661.716	7.33333
660.387	4.33333
659.055	5.66667
657.725	5.33333
656.393	9.33333
655.063	5.33333
653.73	3.66667
652.398	6.66667
651.065	3.66667
649.732	3
648.399	8
647.065	5.33333
645.729	7.33333
644.396	6
643.062	7.33333
641.725	7
640.389	6.66667
639.054	5
637.717	5.33333
636.38	7.66667
635.043	5.66667
633.705	5.33333
632.368	7
631.03	7.66667
629.689	3
628.351	6.66667
627.011	5.33333
625.672	7.33333
624.331	3
622.99	7.33333
621.651	6
620.309	8
618.967	8.66667
617.625	4.33333
616.281	12.3333
614.939	6
613.596	8.66667
612.251	6.66667
610.908	9.33333
609.563	5.33333
608.22	3.66667
606.874	7
605.528	4
604.182	4.66667
602.836	5.33333
601.49	6.66667
600.143	3
598.794	3.66667
597.447	3.66667
596.1	4
594.75	6.66667
593.403	6.66667
592.053	5
590.703	5.33333
589.353	5.66667
588.002	5.66667
586.651	5.66667
585.3	3.66667
583.949	5
582.598	3.33333
581.244	5.66667
579.893	2.66667
578.539	5.33333
577.187	5
575.832	4.66667
574.478	6
573.123	4.33333
571.768	5
570.413	4.33333
569.057	6.66667
567.702	6.33333
566.346	5.66667
564.988	5.66667
563.632	6.66667
562.273	8
560.916	3.66667
559.558	6
558.198	5
556.839	9.33333
555.48	7.33333
554.12	9
552.76	8
551.4	7.66667
550.039	9.33333
548.677	9.33333
547.316	9.33333
545.953	11.6667
544.592	12.3333
543.229	17
541.865	13.6667
540.501	10
539.137	16.3333
537.773	15
536.408	15.6667
535.044	15.6667
533.679	22
532.312	31.3333
530.946	40.3333
529.579	46.3333
528.213	60
526.845	69.6667
525.477	122.667
524.111	199.333
522.742	428.667
521.373	990.333
520.002	1555.67
518.633	1074.67
517.263	483.333
515.894	233.667
514.522	126.333
513.152	80.6667
511.779	60.6667
510.407	48
509.034	31
507.663	25.3333
506.29	21.6667
504.917	19.3333
503.543	17.3333
502.167	17.6667
500.793	18.6667
499.419	13.3333
498.043	14.6667
496.668	12
495.291	10.3333
493.916	8.33333
492.539	16
491.161	9
489.783	7.33333
488.405	11.3333
487.027	8
485.649	6.33333
484.268	9.66667
482.889	9
481.51	9
480.129	7.66667
478.75	6
477.368	6
475.986	7
474.604	9.33333
473.221	7
471.839	7.66667
470.456	6.33333
469.073	7.33333
467.69	9.33333
466.307	7
464.921	6
463.537	4.33333
462.151	8.66667
460.767	6.33333
459.38	4.66667
457.993	5.33333
456.606	4.66667
455.219	3.33333
453.832	4.33333
452.444	3.33333
451.056	5.66667
449.668	5.33333
448.278	3.33333
446.89	4.33333
445.499	7
444.11	6
442.719	3.66667
441.327	6
439.936	8.66667
438.544	3.33333
437.152	6.66667
435.76	5.33333
434.367	9
432.975	6.66667
431.579	8
430.186	3.33333
428.791	8.66667
427.398	5
426.002	6
424.606	10
423.211	4.66667
421.815	5.66667
420.418	5.33333
419.021	7
417.624	6.66667
416.225	9.33333
414.827	6
413.43	6
412.029	4
410.631	5.66667
409.231	6.33333
407.83	6
406.429	5.33333
405.03	4.33333
403.629	6.66667
402.227	6
400.825	6.66667
399.421	3.66667
398.019	5.66667
396.617	3.66667
395.212	7
393.809	4.33333
392.404	8.33333
391	5.66667
389.595	5.66667
388.189	5.33333
386.783	6
385.377	10
383.97	4.66667
382.563	8
381.157	7
379.747	5
378.34	4.66667
376.932	7.66667
375.522	7
374.112	2.33333
372.704	7
371.294	4
369.883	5
368.472	6.66667
367.061	6.66667
365.649	7.33333
364.238	6.33333
362.826	6
361.411	7.66667
359.999	10.3333
358.585	1.33333
357.172	5
355.757	7.66667
354.342	8.33333
352.928	8.33333
351.513	6
350.097	6.33333
348.68	2
347.264	7.33333
345.845	8.33333
344.429	7.66667
343.012	6
341.948	7