Folder: pypi-mirror-373/packages/dopes/dopes-2025.1.0.tar.gz/dopes-2025.1.0/examples/data_analysis/raman_silicon/data/514nm_1%_15s (part 5)

File: W3L150_15_bottom.txt
692.206	-1
690.885	-0.666667
689.564	1.66667
688.241	0.666667
686.917	0.333333
685.596	1.66667
684.272	0.666667
682.948	2
681.624	2
680.299	2.66667
678.975	0.666667
677.65	2.33333
676.323	3
674.998	3
673.67	3
672.344	3.33333
671.017	2
669.689	4.33333
668.362	3.33333
667.034	3
665.705	5
664.376	4
663.045	2.33333
661.716	4.33333
660.387	4.33333
659.055	1.66667
657.725	2.33333
656.393	3
655.063	2
653.73	2
652.398	3.66667
651.065	5
649.732	2.33333
648.399	2.33333
647.065	3
645.729	4
644.396	1.33333
643.062	1.66667
641.725	2.33333
640.389	2.33333
639.054	2
637.717	1.33333
636.38	4.66667
635.043	3
633.705	4.33333
632.368	5.33333
631.03	3.66667
629.689	2
628.351	-1.66667
627.011	3
625.672	2
624.331	5.66667
622.99	3
621.651	3
620.309	3.33333
618.967	5
617.625	6
616.281	6
614.939	2.33333
613.596	2.66667
612.251	4.66667
610.908	3.33333
609.563	2.33333
608.22	4
606.874	2.33333
605.528	2.33333
604.182	1.33333
602.836	2.66667
601.49	2.33333
600.143	0
598.794	1.66667
597.447	0.333333
596.1	1
594.75	1.33333
593.403	2.33333
592.053	3.33333
590.703	3
589.353	2
588.002	1.66667
586.651	2
585.3	1.33333
583.949	-0.666667
582.598	2
581.244	2.33333
579.893	3
578.539	-0.333333
577.187	5.33333
575.832	1
574.478	3
573.123	2
571.768	0.666667
570.413	0.666667
569.057	4.33333
567.702	3.66667
566.346	1.66667
564.988	2
563.632	2.66667
562.273	1.66667
560.916	3
559.558	2
558.198	6
556.839	2.66667
555.48	5.33333
554.12	4.66667
552.76	7
551.4	3.33333
550.039	7.66667
548.677	10.6667
547.316	10
545.953	8
544.592	8.33333
543.229	9.33333
541.865	9
540.501	7.33333
539.137	11
537.773	10.3333
536.408	17
535.044	13
533.679	20
532.312	23
530.946	28.3333
529.579	33.3333
528.213	44.3333
526.845	48.3333
525.477	78
524.111	123
522.742	248
521.373	547.667
520.002	893
518.633	986
517.263	961
515.894	515
514.522	233.667
513.152	122
511.779	77.3333
510.407	51.3333
509.034	40.6667
507.663	30.6667
506.29	24
504.917	20.3333
503.543	17.6667
502.167	11.3333
500.793	13.6667
499.419	12
498.043	10.6667
496.668	8
495.291	9
493.916	7.33333
492.539	9
491.161	5.33333
489.783	2.66667
488.405	2.33333
487.027	5.66667
485.649	4.66667
484.268	4.66667
482.889	5.66667
481.51	5.66667
480.129	5.66667
478.75	5
477.368	7.33333
475.986	1.66667
474.604	4.33333
473.221	3.66667
471.839	5
470.456	5.66667
469.073	1.66667
467.69	2.66667
466.307	2.66667
464.921	3
463.537	1
462.151	-0.333333
460.767	2
459.38	2.66667
457.993	2.66667
456.606	4
455.219	3.66667
453.832	1.33333
452.444	4.66667
451.056	2
449.668	1.66667
448.278	3
446.89	3.33333
445.499	3.33333
444.11	2
442.719	3.66667
441.327	2.66667
439.936	4.33333
438.544	3.33333
437.152	3.33333
435.76	5.66667
434.367	5
432.975	5
431.579	5
430.186	2
428.791	5
427.398	4
426.002	3
424.606	5.33333
423.211	3.66667
421.815	3
420.418	3.66667
419.021	4.33333
417.624	5
416.225	3.33333
414.827	1.66667
413.43	4
412.029	3
410.631	2.66667
409.231	2
407.83	0.666667
406.429	4.66667
405.03	2.66667
403.629	0.666667
402.227	2.66667
400.825	3
399.421	2
398.019	1.33333
396.617	3.33333
395.212	4.66667
393.809	5
392.404	2.33333
391	4.33333
389.595	4.66667
388.189	1.66667
386.783	-0.333333
385.377	1.66667
383.97	3.33333
382.563	3.33333
381.157	4.66667
379.747	4
378.34	3
376.932	1
375.522	3.33333
374.112	3.66667
372.704	3.66667
371.294	4.33333
369.883	4
368.472	4.33333
367.061	3.66667
365.649	3
364.238	2.33333
362.826	0.666667
361.411	4.66667
359.999	4.33333
358.585	4.33333
357.172	6.33333
355.757	4.66667
354.342	3
352.928	3
351.513	4
350.097	3.66667
348.68	7.66667
347.264	3
345.845	5.33333
344.429	2.66667
343.012	3.66667
341.948	5.33333

File: W3L150_15_top.txt
692.206	-3.33333
690.885	1.66667
689.564	-0.666667
688.241	1.66667
686.917	-1.33333
685.596	2.66667
684.272	1
682.948	0
681.624	2
680.299	5.33333
678.975	1.66667
677.65	1.66667
676.323	2.33333
674.998	2.33333
673.67	0.666667
672.344	2.66667
671.017	3
669.689	1
668.362	3.66667
667.034	6.33333
665.705	1
664.376	1
663.045	3.66667
661.716	3.66667
660.387	2.66667
659.055	1
657.725	3.66667
656.393	4
655.063	0.666667
653.73	2
652.398	1.66667
651.065	3
649.732	2.66667
648.399	1.66667
647.065	4
645.729	1
644.396	3.33333
643.062	3.66667
641.725	2.66667
640.389	4
639.054	4
637.717	2.33333
636.38	4.66667
635.043	3.66667
633.705	1.66667
632.368	2
631.03	2.66667
629.689	3.33333
628.351	2
627.011	3.33333
625.672	3
624.331	4.66667
622.99	6
621.651	4
620.309	1.33333
618.967	3.33333
617.625	3
616.281	5.66667
614.939	5.66667
613.596	1
612.251	2
610.908	4
609.563	2.66667
608.22	2.33333
606.874	4.33333
605.528	3
604.182	2
602.836	1.33333
601.49	1.66667
600.143	3.66667
598.794	1.33333
597.447	1.66667
596.1	1
594.75	2.33333
593.403	1
592.053	2
590.703	2
589.353	3.66667
588.002	3.33333
586.651	2.33333
585.3	0.333333
583.949	1.66667
582.598	2.33333
581.244	1.66667
579.893	1
578.539	-1
577.187	3.33333
575.832	0.666667
574.478	1.66667
573.123	2.33333
571.768	2
570.413	3.66667
569.057	3.33333
567.702	2.33333
566.346	2.66667
564.988	1.66667
563.632	4.66667
562.273	3.33333
560.916	4
559.558	1
558.198	4
556.839	4.33333
555.48	5
554.12	4.33333
552.76	4.33333
551.4	4.66667
550.039	6.33333
548.677	8.66667
547.316	6
545.953	7.66667
544.592	7.66667
543.229	8.33333
541.865	6.66667
540.501	9.33333
539.137	14.6667
537.773	10.3333
536.408	16
535.044	19.3333
533.679	22
532.312	27.3333
530.946	34
529.579	31.6667
528.213	45.3333
526.845	63.3333
525.477	95.3333
524.111	168.667
522.742	325
521.373	757.333
520.002	1156
518.633	1069
517.263	945.667
515.894	548
514.522	250
513.152	129
511.779	86
510.407	60.3333
509.034	40.6667
507.663	32
506.29	26.3333
504.917	17
503.543	15.6667
502.167	13.6667
500.793	13.6667
499.419	9.33333
498.043	14
496.668	9.66667
495.291	7.66667
493.916	8
492.539	10
491.161	5.66667
489.783	4.66667
488.405	7.66667
487.027	7
485.649	9
484.268	3.66667
482.889	3.66667
481.51	4.66667
480.129	5.33333
478.75	4.33333
477.368	0.666667
475.986	4
474.604	2
473.221	3.66667
471.839	1.66667
470.456	3.33333
469.073	2.66667
467.69	4
466.307	5.33333
464.921	2.66667
463.537	3.33333
462.151	1.33333
460.767	1.66667
459.38	0
457.993	-0.666667
456.606	4
455.219	3
453.832	3.33333
452.444	3
451.056	0
449.668	2.66667
448.278	2.33333
446.89	1
445.499	2.33333
444.11	2
442.719	6
441.327	6.33333
439.936	3.33333
438.544	4.33333
437.152	5
435.76	4.33333
434.367	4.66667
432.975	3.33333
431.579	5
430.186	4.33333
428.791	3.66667
427.398	3.33333
426.002	4.66667
424.606	2.66667
423.211	4
421.815	2
420.418	3
419.021	5
417.624	2.33333
416.225	3
414.827	4
413.43	0
412.029	3.66667
410.631	2.33333
409.231	2
407.83	1.33333
406.429	2
405.03	3.33333
403.629	2.33333
402.227	1.33333
400.825	4
399.421	3.33333
398.019	3
396.617	3.66667
395.212	4.66667
393.809	4
392.404	4.33333
391	5.33333
389.595	4.33333
388.189	2.33333
386.783	2.33333
385.377	3.66667
383.97	1
382.563	1.66667
381.157	3
379.747	3.66667
378.34	3
376.932	3.33333
375.522	4.33333
374.112	3
372.704	2.66667
371.294	5
369.883	5.33333
368.472	4
367.061	1.33333
365.649	1
364.238	4.33333
362.826	3.66667
361.411	4
359.999	5.66667
358.585	4.33333
357.172	5.33333
355.757	1
354.342	2
352.928	5
351.513	1
350.097	5.66667
348.68	4.33333
347.264	4.66667
345.845	4.33333
344.429	4.66667
343.012	6
341.948	5.33333

File: W3L150_16_bottom.txt
692.206	2.66667
690.885	5.33333
689.564	0
688.241	2.66667
686.917	4.66667
685.596	4.66667
684.272	3.33333
682.948	2.66667
681.624	3.66667
680.299	4
678.975	4.33333
677.65	1.33333
676.323	4
674.998	3.33333
673.67	3.66667
672.344	1.66667
671.017	3.33333
669.689	5.33333
668.362	4.66667
667.034	3.66667
665.705	3.66667
664.376	4.33333
663.045	0.666667
661.716	6.66667
660.387	4
659.055	1.66667
657.725	5
656.393	3.66667
655.063	5
653.73	5.66667
652.398	2
651.065	5.66667
649.732	4.66667
648.399	1
647.065	4.33333
645.729	3.66667
644.396	2.33333
643.062	3.33333
641.725	4.66667
640.389	5
639.054	3
637.717	5
636.38	4.33333
635.043	3.66667
633.705	4
632.368	2
631.03	1.33333
629.689	2.66667
628.351	3.33333
627.011	4.33333
625.672	2
624.331	6.33333
622.99	2.66667
621.651	5.66667
620.309	6.33333
618.967	5.33333
617.625	7
616.281	5.33333
614.939	5.33333
613.596	7.66667
612.251	6
610.908	3.33333
609.563	4
608.22	2.66667
606.874	5
605.528	2.33333
604.182	4
602.836	4.66667
601.49	6.66667
600.143	5
598.794	4
597.447	4
596.1	3.33333
594.75	3
593.403	4.33333
592.053	3.66667
590.703	3.66667
589.353	4.33333
588.002	2
586.651	4
585.3	3.66667
583.949	6.66667
582.598	1.66667
581.244	4
579.893	3.33333
578.539	3.33333
577.187	1.33333
575.832	2
574.478	4
573.123	5.66667
571.768	2.66667
570.413	1
569.057	5.66667
567.702	5.33333
566.346	5.33333
564.988	7
563.632	4
562.273	5
560.916	6
559.558	3.33333
558.198	5
556.839	6.66667
555.48	6.33333
554.12	8
552.76	3.66667
551.4	4.33333
550.039	6
548.677	7.33333
547.316	5.66667
545.953	9
544.592	11.6667
543.229	10
541.865	15
540.501	13.3333
539.137	14
537.773	16
536.408	16
535.044	22
533.679	21.6667
532.312	23.3333
530.946	29
529.579	32.6667
528.213	42.3333
526.845	61.6667
525.477	87.6667
524.111	162.667
522.742	318.667
521.373	747.667
520.002	1075.67
518.633	881.667
517.263	881.333
515.894	590
514.522	269
513.152	144.333
511.779	87.3333
510.407	60.6667
509.034	38.3333
507.663	34
506.29	24.3333
504.917	17
503.543	21.6667
502.167	16.3333
500.793	12
499.419	14.3333
498.043	11.6667
496.668	11.3333
495.291	8.33333
493.916	10.3333
492.539	8
491.161	8.33333
489.783	9.66667
488.405	7
487.027	8.66667
485.649	7
484.268	8.33333
482.889	6
481.51	5.66667
480.129	7.33333
478.75	5
477.368	6.66667
475.986	6.33333
474.604	6.33333
473.221	7.66667
471.839	3
470.456	2.33333
469.073	1
467.69	6.33333
466.307	5.33333
464.921	2
463.537	2.33333
462.151	4
460.767	3.66667
459.38	5
457.993	4
456.606	2.33333
455.219	1.33333
453.832	2
452.444	3
451.056	4.66667
449.668	3.33333
448.278	6
446.89	8.33333
445.499	7
444.11	4.33333
442.719	5.33333
441.327	3.66667
439.936	7.33333
438.544	6
437.152	5
435.76	5.33333
434.367	2.33333
432.975	8
431.579	1
430.186	5
428.791	6.33333
427.398	6.33333
426.002	8
424.606	7
423.211	3
421.815	3.33333
420.418	7.66667
419.021	3.33333
417.624	4.33333
416.225	3.66667
414.827	4
413.43	6.66667
412.029	5.33333
410.631	2.66667
409.231	4.33333
407.83	3.66667
406.429	4.33333
405.03	2
403.629	3.66667
402.227	6
400.825	1.66667
399.421	1
398.019	5.33333
396.617	7
395.212	6.66667
393.809	1.66667
392.404	6
391	3.66667
389.595	3.33333
388.189	5.66667
386.783	3.66667
385.377	5
383.97	7
382.563	2.66667
381.157	5.66667
379.747	5
378.34	3.33333
376.932	4.33333
375.522	4
374.112	4.33333
372.704	3.66667
371.294	3.33333
369.883	6.66667
368.472	5.66667
367.061	5.66667
365.649	4.66667
364.238	4.66667
362.826	4.33333
361.411	5.66667
359.999	4.33333
358.585	3.66667
357.172	3.33333
355.757	3.33333
354.342	3
352.928	5.66667
351.513	3.66667
350.097	6
348.68	4.33333
347.264	4
345.845	4
344.429	6
343.012	4.66667
341.948	5.33333

File: W3L150_16_top.txt
692.206	0.666667
690.885	2
689.564	2.33333
688.241	0.666667
686.917	1
685.596	1
684.272	1
682.948	2.66667
681.624	4
680.299	2
678.975	1.66667
677.65	2.66667
676.323	1.66667
674.998	2.66667
673.67	2
672.344	2
671.017	2
669.689	4.66667
668.362	3.66667
667.034	0.666667
665.705	5.66667
664.376	4
663.045	1.33333
661.716	2
660.387	2
659.055	4
657.725	3.66667
656.393	1.66667
655.063	4
653.73	4.66667
652.398	1.66667
651.065	2.66667
649.732	2.66667
648.399	3.33333
647.065	4
645.729	2.33333
644.396	-0.333333
643.062	3.33333
641.725	2
640.389	4
639.054	-0.666667
637.717	3
636.38	2.33333
635.043	1.33333
633.705	5.66667
632.368	2
631.03	3.66667
629.689	1.33333
628.351	2.66667
627.011	3
625.672	4.66667
624.331	5.33333
622.99	4.66667
621.651	4.33333
620.309	3.33333
618.967	3.33333
617.625	6.66667
616.281	4.66667
614.939	1
613.596	5.66667
612.251	1.66667
610.908	3.66667
609.563	3.66667
608.22	4
606.874	4.33333
605.528	4
604.182	3.33333
602.836	1.33333
601.49	4.33333
600.143	5
598.794	3.33333
597.447	0.333333
596.1	3.33333
594.75	3.66667
593.403	3
592.053	1.66667
590.703	3.66667
589.353	2
588.002	4.33333
586.651	1.66667
585.3	3
583.949	3
582.598	1.33333
581.244	3
579.893	4
578.539	1.66667
577.187	4.33333
575.832	2.33333
574.478	3.33333
573.123	1.33333
571.768	4.66667
570.413	3.33333
569.057	2.33333
567.702	4
566.346	3
564.988	6.33333
563.632	0.666667
562.273	4.66667
560.916	4.33333
559.558	6
558.198	5.66667
556.839	5
555.48	6.33333
554.12	6
552.76	6.33333
551.4	9.66667
550.039	8
548.677	7.66667
547.316	8.66667
545.953	9.66667
544.592	13
543.229	16.3333
541.865	9
540.501	18
539.137	19.6667
537.773	18
536.408	20.3333
535.044	20
533.679	33
532.312	36.6667
530.946	42
529.579	53.6667
528.213	54.3333
526.845	82
525.477	124.333
524.111	204.667
522.742	400
521.373	921
520.002	1470.67
518.633	1326
517.263	1435
515.894	950
514.522	444.667
513.152	226.333
511.779	127.333
510.407	83.6667
509.034	53.6667
507.663	53
506.29	39.3333
504.917	34.3333
503.543	30.3333
502.167	20.6667
500.793	20
499.419	17.6667
498.043	19
496.668	8.33333
495.291	11.6667
493.916	11
492.539	10.6667
491.161	9.66667
489.783	9
488.405	9.33333
487.027	9.33333
485.649	6.33333
484.268	4.66667
482.889	6
481.51	7
480.129	6
478.75	2.66667
477.368	7
475.986	3.33333
474.604	5.66667
473.221	3.66667
471.839	4.33333
470.456	4.66667
469.073	4.66667
467.69	3
466.307	1.66667
464.921	2.33333
463.537	1
462.151	5
460.767	5
459.38	3
457.993	5
456.606	4
455.219	4.66667
453.832	3.66667
452.444	4.33333
451.056	1
449.668	2
448.278	3
446.89	7
445.499	4
444.11	3.33333
442.719	2.33333
441.327	1.33333
439.936	4.33333
438.544	4.66667
437.152	4.33333
435.76	7.33333
434.367	5.66667
432.975	6.66667
431.579	3.66667
430.186	2.66667
428.791	7.33333
427.398	3.33333
426.002	3.66667
424.606	5.66667
423.211	4.33333
421.815	4
420.418	3
419.021	1.66667
417.624	3.66667
416.225	3.33333
414.827	3.33333
413.43	3.33333
412.029	3.66667
410.631	2
409.231	4.66667
407.83	2.33333
406.429	5.33333
405.03	2.33333
403.629	2.33333
402.227	3.66667
400.825	2
399.421	5.66667
398.019	4
396.617	4
395.212	1.66667
393.809	6.33333
392.404	5
391	4.66667
389.595	4.66667
388.189	6
386.783	8
385.377	4.33333
383.97	3.66667
382.563	2.33333
381.157	3.33333
379.747	6
378.34	3.33333
376.932	4.33333
375.522	7.66667
374.112	4
372.704	5.33333
371.294	2.33333
369.883	6
368.472	0.333333
367.061	1.33333
365.649	5
364.238	6
362.826	5
361.411	3
359.999	6
358.585	7
357.172	7.66667
355.757	7
354.342	7
352.928	8.33333
351.513	4
350.097	5.66667
348.68	7.66667
347.264	6.33333
345.845	4
344.429	3.33333
343.012	3.66667
341.948	4

File: W3L150_17_bottom.txt
692.206	3.66667
690.885	4.33333
689.564	3.66667
688.241	3
686.917	3.33333
685.596	3
684.272	3.33333
682.948	3
681.624	2
680.299	2.66667
678.975	1.66667
677.65	2.66667
676.323	3.66667
674.998	5
673.67	2
672.344	7.66667
671.017	5
669.689	4.33333
668.362	2.66667
667.034	5.33333
665.705	5
664.376	5
663.045	4
661.716	3.33333
660.387	2
659.055	4.66667
657.725	6
656.393	2.66667
655.063	4.66667
653.73	2.66667
652.398	2.66667
651.065	7
649.732	3
648.399	9
647.065	2.33333
645.729	4.33333
644.396	4.33333
643.062	4.66667
641.725	-0.666667
640.389	4.33333
639.054	5
637.717	8
636.38	5
635.043	4.66667
633.705	3.33333
632.368	3
631.03	5
629.689	7
628.351	6
627.011	6.66667
625.672	6.66667
624.331	5.33333
622.99	5.66667
621.651	4.66667
620.309	9.33333
618.967	7
617.625	6.66667
616.281	5.66667
614.939	6.33333
613.596	7.33333
612.251	7
610.908	7.66667
609.563	6
608.22	8
606.874	3
605.528	5.66667
604.182	4.33333
602.836	5.33333
601.49	4.33333
600.143	6.33333
598.794	4.66667
597.447	1.33333
596.1	5.66667
594.75	2
593.403	4.33333
592.053	3.66667
590.703	3.66667
589.353	3
588.002	2.66667
586.651	6.33333
585.3	3.66667
583.949	3
582.598	2.66667
581.244	1.66667
579.893	1.66667
578.539	1.66667
577.187	4
575.832	5.33333
574.478	6
573.123	4.33333
571.768	5.33333
570.413	6.66667
569.057	7.66667
567.702	7
566.346	8.66667
564.988	4.33333
563.632	3.33333
562.273	6
560.916	3
559.558	8
558.198	3.66667
556.839	7.33333
555.48	7.66667
554.12	11.3333
552.76	12.6667
551.4	8.33333
550.039	11.6667
548.677	13
547.316	10.3333
545.953	15.3333
544.592	14
543.229	13
541.865	15.6667
540.501	19
539.137	19.3333
537.773	19.6667
536.408	22.6667
535.044	26.6667
533.679	30.3333
532.312	33
530.946	44.3333
529.579	54
528.213	70
526.845	87
525.477	128.667
524.111	207
522.742	381.667
521.373	833.667
520.002	1363
518.633	1352.67
517.263	1546.67
515.894	1214
514.522	569
513.152	280.333
511.779	162
510.407	105
509.034	80.3333
507.663	59
506.29	44.3333
504.917	41.3333
503.543	31
502.167	25.3333
500.793	27
499.419	19
498.043	16.3333
496.668	17.6667
495.291	15
493.916	12.3333
492.539	10.6667
491.161	13
489.783	11
488.405	12.3333
487.027	9.66667
485.649	11.3333
484.268	13
482.889	8.66667
481.51	11.6667
480.129	10.6667
478.75	6
477.368	4
475.986	10.3333
474.604	9.66667
473.221	7.33333
471.839	8
470.456	8.66667
469.073	7.66667
467.69	6
466.307	5.33333
464.921	7.33333
463.537	2.33333
462.151	5
460.767	2.33333
459.38	3.66667
457.993	5.33333
456.606	2.33333
455.219	8.66667
453.832	3.66667
452.444	9.33333
451.056	6
449.668	6.66667
448.278	6.33333
446.89	4.33333
445.499	5.33333
444.11	6
442.719	10.3333
441.327	7.33333
439.936	7.33333
438.544	7
437.152	5.66667
435.76	8.66667
434.367	8.66667
432.975	5.66667
431.579	6
430.186	7
428.791	6
427.398	7.33333
426.002	6
424.606	5.66667
423.211	5
421.815	6.33333
420.418	4.66667
419.021	7
417.624	8
416.225	7.33333
414.827	9
413.43	5
412.029	6.66667
410.631	6.66667
409.231	6.66667
407.83	6.33333
406.429	4
405.03	4.33333
403.629	2.66667
402.227	8.66667
400.825	4.66667
399.421	4
398.019	7
396.617	11
395.212	5
393.809	7
392.404	5
391	5.33333
389.595	4
388.189	6.66667
386.783	8.33333
385.377	7.33333
383.97	9.66667
382.563	4.66667
381.157	10.3333
379.747	6.66667
378.34	6
376.932	7
375.522	6.66667
374.112	5
372.704	4.66667
371.294	9
369.883	4
368.472	9
367.061	6.33333
365.649	5
364.238	5
362.826	8
361.411	8.33333
359.999	7.66667
358.585	8
357.172	7
355.757	10.6667
354.342	6.33333
352.928	7
351.513	6.66667
350.097	7.33333
348.68	8.66667
347.264	8.66667
345.845	5.33333
344.429	4.33333
343.012	9
341.948	7.33333

File: W3L150_17_top.txt
692.206	6.33333
690.885	5.66667
689.564	5.33333
688.241	7
686.917	6
685.596	5.66667
684.272	5.66667
682.948	5.66667
681.624	2.33333
680.299	6
678.975	6.33333
677.65	5.33333
676.323	7
674.998	8.66667
673.67	5.33333
672.344	6
671.017	6.33333
669.689	5.66667
668.362	4.66667
667.034	5.66667
665.705	8.33333
664.376	5.33333
663.045	6
661.716	6.33333
660.387	6
659.055	7
657.725	8
656.393	8
655.063	4.66667
653.73	5
652.398	6
651.065	6.33333
649.732	4.66667
648.399	7
647.065	5
645.729	6
644.396	8.66667
643.062	5.66667
641.725	7
640.389	4.33333
639.054	5.66667
637.717	3.66667
636.38	7.33333
635.043	5.33333
633.705	7
632.368	7.66667
631.03	4.66667
629.689	6.33333
628.351	5
627.011	5.66667
625.672	4.66667
624.331	7.66667
622.99	8
621.651	2.66667
620.309	7.33333
618.967	5.66667
617.625	7.66667
616.281	8.33333
614.939	4.66667
613.596	9.33333
612.251	11.3333
610.908	7.33333
609.563	4.66667
608.22	5.66667
606.874	4.66667
605.528	8.33333
604.182	5.66667
602.836	7
601.49	6
600.143	7
598.794	8.33333
597.447	6.33333
596.1	4.33333
594.75	3.33333
593.403	6.33333
592.053	5.66667
590.703	5.66667
589.353	5
588.002	5
586.651	5.33333
585.3	6
583.949	5.66667
582.598	5.33333
581.244	5.66667
579.893	4.66667
578.539	6.33333
577.187	6
575.832	6.66667
574.478	5.33333
573.123	5.33333
571.768	7.66667
570.413	6
569.057	4
567.702	4.66667
566.346	7.66667
564.988	4.33333
563.632	6.33333
562.273	5.66667
560.916	6
559.558	9.33333
558.198	10
556.839	10.6667
555.48	6
554.12	9.33333
552.76	6.66667
551.4	10.3333
550.039	9.33333
548.677	9
547.316	12
545.953	13.6667
544.592	9.33333
543.229	12.6667
541.865	14
540.501	14.6667
539.137	16.3333
537.773	16.6667
536.408	15
535.044	21.6667
533.679	27
532.312	26.3333
530.946	29.3333
529.579	40.3333
528.213	49.3333
526.845	66.3333
525.477	88.6667
524.111	158.667
522.742	321.667
521.373	726
520.002	1086.33
518.633	958
517.263	940.333
515.894	689.667
514.522	336.667
513.152	183.667
511.779	106
510.407	66.6667
509.034	51.6667
507.663	40
506.29	32.6667
504.917	24
503.543	24.6667
502.167	20.3333
500.793	19
499.419	17
498.043	15.6667
496.668	14.3333
495.291	13.6667
493.916	10.3333
492.539	10.6667
491.161	13.3333
489.783	13
488.405	13.3333
487.027	8
485.649	11.6667
484.268	8
482.889	8.66667
481.51	5
480.129	9.33333
478.75	7.66667
477.368	12.6667
475.986	8.33333
474.604	7.66667
473.221	7.66667
471.839	7
470.456	8
469.073	3.33333
467.69	6.66667
466.307	7
464.921	6.33333
463.537	6.66667
462.151	5.33333
460.767	4.66667
459.38	8
457.993	5
456.606	5.33333
455.219	6.66667
453.832	9
452.444	7
451.056	5.66667
449.668	10.6667
448.278	6.33333
446.89	6
445.499	5.33333
444.11	8
442.719	10.3333
441.327	8.33333
439.936	8.66667
438.544	5.66667
437.152	7.33333
435.76	5
434.367	9.33333
432.975	10
431.579	6
430.186	3.66667
428.791	7.66667
427.398	9
426.002	5.33333
424.606	9
423.211	6.66667
421.815	6.66667
420.418	8
419.021	4.33333
417.624	6
416.225	5
414.827	6.66667
413.43	3.66667
412.029	7.66667
410.631	5
409.231	7.33333
407.83	6.66667
406.429	6.33333
405.03	8.66667
403.629	6
402.227	5
400.825	6
399.421	5.66667
398.019	5.66667
396.617	5.66667
395.212	4.33333
393.809	7.66667
392.404	9.33333
391	5.33333
389.595	4.66667
388.189	2.33333
386.783	5.33333
385.377	7
383.97	6.33333
382.563	8
381.157	7
379.747	4.66667
378.34	6.66667
376.932	6
375.522	6.33333
374.112	8.33333
372.704	5.66667
371.294	6.66667
369.883	5
368.472	7.66667
367.061	5.66667
365.649	8.66667
364.238	2.33333
362.826	6.33333
361.411	8.33333
359.999	9
358.585	5
357.172	5
355.757	7.66667
354.342	5.66667
352.928	9.66667
351.513	4
350.097	5.33333
348.68	10
347.264	4
345.845	10
344.429	9.66667
343.012	6.66667
341.948	5.33333

File: W3L150_18_bottom.txt
692.206	2.66667
690.885	0.666667
689.564	2
688.241	3.33333
686.917	4
685.596	2.33333
684.272	4.66667
682.948	2.33333
681.624	-0.333333
680.299	4
678.975	4.33333
677.65	2.33333
676.323	3.33333
674.998	4
673.67	3.66667
672.344	3.33333
671.017	3
669.689	3.66667
668.362	5.33333
667.034	4.33333
665.705	6.66667
664.376	3.66667
663.045	-0.333333
661.716	4
660.387	2
659.055	4.66667
657.725	3.66667
656.393	4
655.063	4.33333
653.73	1.33333
652.398	2
651.065	2.33333
649.732	3.33333
648.399	3.33333
647.065	4
645.729	4
644.396	4
643.062	4.33333
641.725	2.33333
640.389	4.66667
639.054	6.66667
637.717	2.33333
636.38	4.66667
635.043	3.66667
633.705	1
632.368	5.33333
631.03	2.66667
629.689	5
628.351	6.33333
627.011	4.66667
625.672	7.33333
624.331	4
622.99	4.33333
621.651	3.66667
620.309	7.33333
618.967	4.33333
617.625	5.33333
616.281	6.66667
614.939	6.33333
613.596	2.66667
612.251	5.33333
610.908	2.33333
609.563	5.33333
608.22	3.66667
606.874	1
605.528	2
604.182	6.66667
602.836	4
601.49	2.66667
600.143	5.33333
598.794	2.66667
597.447	5
596.1	6
594.75	3.33333
593.403	6.33333
592.053	1
590.703	1.66667
589.353	1.33333
588.002	4
586.651	2
585.3	1.66667
583.949	3.66667
582.598	4.33333
581.244	2.66667
579.893	3.33333
578.539	3.33333
577.187	1.66667
575.832	1
574.478	2.33333
573.123	3.66667
571.768	5.33333
570.413	1.33333
569.057	4
567.702	3
566.346	3.33333
564.988	3.66667
563.632	0.666667
562.273	4.66667
560.916	6.66667
559.558	4.33333
558.198	4
556.839	4
555.48	5.33333
554.12	7.66667
552.76	7
551.4	8
550.039	8.33333
548.677	5.33333
547.316	10.6667
545.953	9.66667
544.592	10.3333
543.229	12.6667
541.865	12.3333
540.501	14.3333
539.137	11
537.773	15
536.408	17.3333
535.044	19.3333
533.679	23.3333
532.312	29.6667
530.946	35
529.579	43
528.213	49
526.845	69.3333
525.477	101
524.111	182
522.742	350.333
521.373	793.333
520.002	1176
518.633	1105.33
517.263	1001.33
515.894	792.667
514.522	414.667
513.152	198.667
511.779	117.667
510.407	72.6667
509.034	61.3333
507.663	48
506.29	29.3333
504.917	29.6667
503.543	16.3333
502.167	18.3333
500.793	15.3333
499.419	15
498.043	14.3333
496.668	14
495.291	6.66667
493.916	7.66667
492.539	10.3333
491.161	9.33333
489.783	6
488.405	8
487.027	8.66667
485.649	8.66667
484.268	10
482.889	5.66667
481.51	8.66667
480.129	5.66667
478.75	6
477.368	6
475.986	5.33333
474.604	6
473.221	4
471.839	8.33333
470.456	7.33333
469.073	5.33333
467.69	4.66667
466.307	4.33333
464.921	5.33333
463.537	3.33333
462.151	3.33333
460.767	2
459.38	4
457.993	2.33333
456.606	2
455.219	3.66667
453.832	5
452.444	4.33333
451.056	5
449.668	5.33333
448.278	1.66667
446.89	1.33333
445.499	4.66667
444.11	2.33333
442.719	2.66667
441.327	6.66667
439.936	5.33333
438.544	5.66667
437.152	7.66667
435.76	5.33333
434.367	5
432.975	3.66667
431.579	7
430.186	6
428.791	4.66667
427.398	3.33333
426.002	6
424.606	4
423.211	5.66667
421.815	5
420.418	4.66667
419.021	7.33333
417.624	8.33333
416.225	1
414.827	6.66667
413.43	6.66667
412.029	6.33333
410.631	3.33333
409.231	4.33333
407.83	4.66667
406.429	1.66667
405.03	4.66667
403.629	2.33333
402.227	6
400.825	4.66667
399.421	5
398.019	4.33333
396.617	5.33333
395.212	2.33333
393.809	3
392.404	5
391	5
389.595	4.33333
388.189	-1.66667
386.783	3
385.377	4.66667
383.97	4
382.563	7.66667
381.157	7
379.747	5
378.34	8.33333
376.932	3.33333
375.522	5
374.112	5
372.704	5.66667
371.294	6.33333
369.883	7.66667
368.472	7.33333
367.061	4.33333
365.649	8.66667
364.238	3.66667
362.826	3
361.411	4
359.999	6.33333
358.585	7.66667
357.172	8
355.757	4.66667
354.342	5
352.928	7.66667
351.513	7.66667
350.097	9
348.68	5.66667
347.264	7
345.845	4.33333
344.429	6
343.012	7.66667
341.948	2.33333