Folder: pypi-mirror-373/packages/dopes/dopes-2025.1.0.tar.gz/dopes-2025.1.0/examples/data_analysis/raman_silicon/data/514nm_1%_15s (part 4)

File: W3L150_11_top.txt
692.206	2
690.885	3.33333
689.564	4
688.241	1.33333
686.917	5
685.596	1.33333
684.272	2
682.948	6.33333
681.624	4
680.299	3
678.975	5.33333
677.65	6
676.323	6.33333
674.998	2.66667
673.67	3
672.344	3
671.017	4.66667
669.689	6
668.362	3.66667
667.034	4
665.705	9.33333
664.376	7.33333
663.045	4.66667
661.716	4.66667
660.387	2
659.055	3.33333
657.725	7
656.393	4.66667
655.063	2.33333
653.73	5
652.398	5
651.065	2.33333
649.732	2.66667
648.399	5.33333
647.065	5.33333
645.729	3
644.396	4.66667
643.062	1.66667
641.725	5.33333
640.389	0.333333
639.054	2.33333
637.717	3.33333
636.38	5
635.043	3.33333
633.705	4.66667
632.368	3.66667
631.03	6
629.689	4
628.351	5
627.011	3.66667
625.672	6.33333
624.331	6
622.99	4.33333
621.651	6.66667
620.309	4
618.967	10
617.625	1
616.281	5.33333
614.939	6
613.596	3
612.251	6
610.908	4.66667
609.563	2.33333
608.22	5
606.874	1.33333
605.528	3.33333
604.182	3
602.836	1.33333
601.49	3.66667
600.143	3.66667
598.794	2
597.447	2.66667
596.1	3.66667
594.75	3.66667
593.403	3.33333
592.053	3.33333
590.703	4.33333
589.353	2.33333
588.002	1
586.651	5.66667
585.3	4
583.949	2.66667
582.598	2.66667
581.244	4.66667
579.893	4.66667
578.539	1.33333
577.187	5
575.832	5.66667
574.478	3
573.123	5.66667
571.768	3
570.413	3
569.057	7.33333
567.702	4.66667
566.346	4.33333
564.988	6.33333
563.632	4.66667
562.273	4.33333
560.916	5.33333
559.558	6.33333
558.198	5
556.839	9
555.48	6.33333
554.12	5.33333
552.76	5.66667
551.4	7.33333
550.039	7
548.677	6
547.316	7.66667
545.953	6
544.592	12.3333
543.229	6.66667
541.865	13.3333
540.501	8.66667
539.137	11
537.773	17.3333
536.408	15.3333
535.044	21.3333
533.679	20.6667
532.312	24
530.946	29.6667
529.579	35.6667
528.213	49.3333
526.845	69.6667
525.477	97
524.111	161
522.742	329.333
521.373	749.333
520.002	1159.67
518.633	1222.33
517.263	711
515.894	323.667
514.522	154.667
513.152	93.6667
511.779	66.3333
510.407	42
509.034	40
507.663	32
506.29	23.6667
504.917	20.3333
503.543	15.6667
502.167	14.6667
500.793	15.6667
499.419	14.3333
498.043	14.3333
496.668	6.33333
495.291	10
493.916	8.66667
492.539	8.33333
491.161	6.66667
489.783	9.33333
488.405	5.33333
487.027	9
485.649	5.33333
484.268	6.66667
482.889	4.66667
481.51	6.66667
480.129	4
478.75	3
477.368	4.33333
475.986	5.66667
474.604	5
473.221	6
471.839	0.333333
470.456	6.66667
469.073	6.33333
467.69	4.66667
466.307	3.66667
464.921	4
463.537	4.66667
462.151	6
460.767	3.66667
459.38	3.66667
457.993	2.66667
456.606	7
455.219	1
453.832	4.33333
452.444	6.66667
451.056	3.33333
449.668	4.66667
448.278	5.33333
446.89	4.33333
445.499	0.333333
444.11	7
442.719	-1.33333
441.327	1.66667
439.936	7.66667
438.544	5
437.152	1.66667
435.76	5
434.367	7
432.975	5.33333
431.579	5.33333
430.186	4.33333
428.791	3
427.398	3.66667
426.002	7
424.606	2.66667
423.211	4.66667
421.815	7
420.418	6.66667
419.021	2.33333
417.624	4.66667
416.225	4
414.827	3.66667
413.43	5.66667
412.029	4.66667
410.631	3
409.231	6.33333
407.83	3.33333
406.429	5.33333
405.03	2.66667
403.629	3.66667
402.227	6.66667
400.825	4
399.421	6.66667
398.019	5
396.617	7
395.212	3.33333
393.809	2.66667
392.404	4.66667
391	3
389.595	2.66667
388.189	2.66667
386.783	4.66667
385.377	2
383.97	6
382.563	6.33333
381.157	3
379.747	2.33333
378.34	5
376.932	2.33333
375.522	5
374.112	3.33333
372.704	4.66667
371.294	5
369.883	1
368.472	2.33333
367.061	4
365.649	2.33333
364.238	7
362.826	4.33333
361.411	2
359.999	7.33333
358.585	3
357.172	4.66667
355.757	4.33333
354.342	3
352.928	3.66667
351.513	4
350.097	1.33333
348.68	2.33333
347.264	6
345.845	5.66667
344.429	7.66667
343.012	5.66667
341.948	5

File: W3L150_12_bottom.txt
692.206	-2
690.885	2.33333
689.564	2
688.241	2.33333
686.917	0.333333
685.596	2.33333
684.272	0.666667
682.948	0.666667
681.624	-0.666667
680.299	6
678.975	3.33333
677.65	0.666667
676.323	2.66667
674.998	3.33333
673.67	5
672.344	1.33333
671.017	1.33333
669.689	2.66667
668.362	3
667.034	5
665.705	2.66667
664.376	1.66667
663.045	2
661.716	2.33333
660.387	2
659.055	1
657.725	4
656.393	4.33333
655.063	5
653.73	4.66667
652.398	2
651.065	3.66667
649.732	3
648.399	2
647.065	0.666667
645.729	1
644.396	1.66667
643.062	0.333333
641.725	1
640.389	1.66667
639.054	2.66667
637.717	4
636.38	2
635.043	2
633.705	1
632.368	-2.33333
631.03	2.33333
629.689	2.33333
628.351	5.33333
627.011	4.33333
625.672	0.666667
624.331	3
622.99	4.33333
621.651	3
620.309	5.33333
618.967	5.33333
617.625	3
616.281	2.33333
614.939	3
613.596	4.66667
612.251	4
610.908	3.33333
609.563	5.33333
608.22	4.66667
606.874	4
605.528	2
604.182	0
602.836	4.33333
601.49	3
600.143	4
598.794	1.33333
597.447	2
596.1	1.66667
594.75	2
593.403	1.33333
592.053	4.33333
590.703	-0.666667
589.353	2.66667
588.002	1.33333
586.651	0.333333
585.3	1.66667
583.949	1.66667
582.598	3.33333
581.244	1
579.893	0.333333
578.539	3.66667
577.187	-0.666667
575.832	0
574.478	2.66667
573.123	2.33333
571.768	5
570.413	-0.333333
569.057	1
567.702	5.33333
566.346	0.333333
564.988	4
563.632	3.66667
562.273	3.33333
560.916	4.33333
559.558	3.33333
558.198	5.33333
556.839	4.66667
555.48	5.66667
554.12	5
552.76	5
551.4	3.66667
550.039	5
548.677	5.66667
547.316	7.33333
545.953	7
544.592	9
543.229	9.66667
541.865	12.6667
540.501	12.6667
539.137	14.6667
537.773	15.3333
536.408	18
535.044	22
533.679	18
532.312	29.3333
530.946	31.3333
529.579	39
528.213	50.3333
526.845	78.6667
525.477	118.333
524.111	184
522.742	410.667
521.373	1033.67
520.002	1356.33
518.633	1059.67
517.263	652.667
515.894	291.667
514.522	154
513.152	82
511.779	64
510.407	41.6667
509.034	30.3333
507.663	25.3333
506.29	19.3333
504.917	19.3333
503.543	15.3333
502.167	8
500.793	11.3333
499.419	5.33333
498.043	7
496.668	8.33333
495.291	6.33333
493.916	8.33333
492.539	5
491.161	3.33333
489.783	6.33333
488.405	5
487.027	7.66667
485.649	5.33333
484.268	5
482.889	5
481.51	4.66667
480.129	5.33333
478.75	3
477.368	6
475.986	1.66667
474.604	3.66667
473.221	2.66667
471.839	5
470.456	3
469.073	1
467.69	1.33333
466.307	5
464.921	1.33333
463.537	3.33333
462.151	2.66667
460.767	4
459.38	2.66667
457.993	1
456.606	3.66667
455.219	1.66667
453.832	0.666667
452.444	3
451.056	3
449.668	3.33333
448.278	3.33333
446.89	1.33333
445.499	3.66667
444.11	1.33333
442.719	3.33333
441.327	4
439.936	0.666667
438.544	4.33333
437.152	3.66667
435.76	4
434.367	3
432.975	2.33333
431.579	4.33333
430.186	2.66667
428.791	3
427.398	4.33333
426.002	6
424.606	3.33333
423.211	2.66667
421.815	4.33333
420.418	2.66667
419.021	4.66667
417.624	3
416.225	4.66667
414.827	0.666667
413.43	2.66667
412.029	4.33333
410.631	6.33333
409.231	3.33333
407.83	4.66667
406.429	6.66667
405.03	1.33333
403.629	1.66667
402.227	4.66667
400.825	3.66667
399.421	4.33333
398.019	2.66667
396.617	4.33333
395.212	3.33333
393.809	3.66667
392.404	4.33333
391	0.666667
389.595	3.33333
388.189	5.66667
386.783	4.33333
385.377	2
383.97	3.33333
382.563	3.33333
381.157	3.33333
379.747	4
378.34	2.66667
376.932	3
375.522	1.33333
374.112	2.33333
372.704	3.66667
371.294	7
369.883	3.66667
368.472	5
367.061	5.66667
365.649	6.66667
364.238	6
362.826	7.66667
361.411	3
359.999	5
358.585	3.66667
357.172	4.33333
355.757	4.66667
354.342	3.66667
352.928	5
351.513	4.33333
350.097	5
348.68	4.66667
347.264	7.66667
345.845	1.66667
344.429	5.66667
343.012	5.33333
341.948	1.33333

File: W3L150_12_top.txt
692.206	-0.666667
690.885	3
689.564	1.33333
688.241	0.333333
686.917	4.66667
685.596	2.33333
684.272	2
682.948	3.33333
681.624	1.33333
680.299	0.333333
678.975	1.33333
677.65	0.666667
676.323	3.33333
674.998	1.66667
673.67	1
672.344	3.66667
671.017	4
669.689	4.66667
668.362	1.66667
667.034	3
665.705	1.33333
664.376	3.33333
663.045	5
661.716	0.666667
660.387	4
659.055	3.33333
657.725	3
656.393	2.66667
655.063	1.33333
653.73	3
652.398	0.666667
651.065	4
649.732	1.66667
648.399	2.33333
647.065	2.33333
645.729	-0.666667
644.396	4.33333
643.062	0.666667
641.725	2.66667
640.389	-0.666667
639.054	2.33333
637.717	2
636.38	2.33333
635.043	0.333333
633.705	3.33333
632.368	3
631.03	1.66667
629.689	0.666667
628.351	2.66667
627.011	4.33333
625.672	3
624.331	3
622.99	4.33333
621.651	6.33333
620.309	6
618.967	5.66667
617.625	7
616.281	4.33333
614.939	2.33333
613.596	3.33333
612.251	4
610.908	2.66667
609.563	3.66667
608.22	1.33333
606.874	2.66667
605.528	1
604.182	2.66667
602.836	1.33333
601.49	2.33333
600.143	3.66667
598.794	0.666667
597.447	1.66667
596.1	1.66667
594.75	3
593.403	1.33333
592.053	1.66667
590.703	2
589.353	-0.666667
588.002	2.66667
586.651	2.66667
585.3	2
583.949	2.33333
582.598	3.33333
581.244	1
579.893	0
578.539	2.66667
577.187	0.333333
575.832	0.666667
574.478	1.66667
573.123	2
571.768	2
570.413	2.66667
569.057	2
567.702	2.33333
566.346	2
564.988	1.66667
563.632	2.33333
562.273	4.33333
560.916	2.33333
559.558	2
558.198	3.66667
556.839	1
555.48	4.33333
554.12	5.33333
552.76	6.66667
551.4	3.66667
550.039	3.33333
548.677	4.33333
547.316	4.33333
545.953	8.66667
544.592	6.33333
543.229	10.6667
541.865	10.6667
540.501	12.6667
539.137	8.66667
537.773	13.3333
536.408	15.6667
535.044	23.3333
533.679	18.6667
532.312	24.6667
530.946	32.3333
529.579	40.3333
528.213	46.6667
526.845	71.3333
525.477	105.667
524.111	171.333
522.742	371
521.373	833
520.002	1222.67
518.633	1159.67
517.263	762
515.894	360.333
514.522	171
513.152	104.667
511.779	71.3333
510.407	48.3333
509.034	38
507.663	26
506.29	25
504.917	12.3333
503.543	20
502.167	13.3333
500.793	11.3333
499.419	10.3333
498.043	11.6667
496.668	11
495.291	9.66667
493.916	5.33333
492.539	8
491.161	3.33333
489.783	5.66667
488.405	8.66667
487.027	6.66667
485.649	4.33333
484.268	6.33333
482.889	3
481.51	6
480.129	2.33333
478.75	3.33333
477.368	4
475.986	3.66667
474.604	3
473.221	2.66667
471.839	0
470.456	4
469.073	2
467.69	3
466.307	3.66667
464.921	3.33333
463.537	2
462.151	1
460.767	1.66667
459.38	1.33333
457.993	2.33333
456.606	2.66667
455.219	2.33333
453.832	3
452.444	2
451.056	2.66667
449.668	4.33333
448.278	5
446.89	4.33333
445.499	1.66667
444.11	3.33333
442.719	4.66667
441.327	4
439.936	2.66667
438.544	5
437.152	1.66667
435.76	4.33333
434.367	4.66667
432.975	6.33333
431.579	3
430.186	5.33333
428.791	4.33333
427.398	5.66667
426.002	2.66667
424.606	3.33333
423.211	3.33333
421.815	4.33333
420.418	4.66667
419.021	2.66667
417.624	4
416.225	6
414.827	3.66667
413.43	1
412.029	1.66667
410.631	2.33333
409.231	1
407.83	4.33333
406.429	3
405.03	3.66667
403.629	4
402.227	3
400.825	2.33333
399.421	3
398.019	0.333333
396.617	1.66667
395.212	3
393.809	4.66667
392.404	2.66667
391	3
389.595	3.66667
388.189	2.33333
386.783	1.33333
385.377	3.33333
383.97	2
382.563	3.33333
381.157	3.66667
379.747	2
378.34	4
376.932	4.66667
375.522	4
374.112	3
372.704	3
371.294	1.66667
369.883	4.33333
368.472	4
367.061	3
365.649	3.33333
364.238	5.33333
362.826	2.66667
361.411	2
359.999	7.33333
358.585	3.33333
357.172	5.33333
355.757	4.33333
354.342	4.66667
352.928	5.33333
351.513	5.66667
350.097	5
348.68	4
347.264	2
345.845	5.33333
344.429	5.66667
343.012	7
341.948	2

File: W3L150_13_bottom.txt
692.206	3
690.885	8.33333
689.564	7.33333
688.241	6.33333
686.917	3.33333
685.596	7
684.272	7
682.948	3.33333
681.624	4
680.299	4.66667
678.975	9
677.65	4.66667
676.323	4.66667
674.998	6.33333
673.67	9
672.344	6.66667
671.017	4.33333
669.689	7.33333
668.362	10
667.034	5.66667
665.705	9
664.376	7.33333
663.045	6
661.716	7.33333
660.387	6.66667
659.055	4.33333
657.725	5.33333
656.393	5.66667
655.063	6.33333
653.73	8
652.398	6.66667
651.065	5.33333
649.732	2.33333
648.399	5
647.065	6.33333
645.729	2.33333
644.396	5
643.062	6.66667
641.725	7
640.389	4
639.054	6.33333
637.717	5
636.38	8.33333
635.043	6.66667
633.705	2.66667
632.368	7.33333
631.03	6.66667
629.689	5.66667
628.351	5
627.011	6.33333
625.672	9
624.331	3.66667
622.99	8
621.651	7.66667
620.309	10.3333
618.967	10.3333
617.625	8.33333
616.281	9
614.939	8.66667
613.596	6
612.251	9
610.908	6.33333
609.563	7.66667
608.22	7
606.874	10.3333
605.528	6.66667
604.182	7
602.836	5.33333
601.49	7
600.143	5
598.794	5.66667
597.447	4.66667
596.1	8.33333
594.75	4
593.403	8
592.053	4
590.703	1.66667
589.353	5.33333
588.002	5.33333
586.651	8.66667
585.3	4.66667
583.949	9.33333
582.598	3.33333
581.244	6.33333
579.893	4
578.539	4.66667
577.187	7
575.832	7.66667
574.478	7.66667
573.123	9.66667
571.768	6
570.413	3.66667
569.057	5.66667
567.702	6.33333
566.346	8
564.988	7
563.632	9.33333
562.273	6.66667
560.916	9.66667
559.558	8.66667
558.198	5
556.839	6.66667
555.48	7.33333
554.12	7
552.76	6
551.4	9
550.039	8
548.677	7
547.316	11.3333
545.953	5.66667
544.592	10.3333
543.229	14.3333
541.865	12
540.501	10.6667
539.137	19.3333
537.773	13
536.408	15.6667
535.044	21.3333
533.679	25
532.312	27.3333
530.946	32.6667
529.579	40.3333
528.213	48
526.845	65.3333
525.477	100
524.111	167.333
522.742	337.667
521.373	743
520.002	1141.33
518.633	1153.67
517.263	903.667
515.894	441.333
514.522	214.667
513.152	129.667
511.779	81.6667
510.407	54.3333
509.034	48.3333
507.663	35.3333
506.29	25.3333
504.917	24
503.543	19
502.167	21.3333
500.793	16.6667
499.419	16.6667
498.043	15
496.668	12.6667
495.291	12.6667
493.916	12
492.539	10.6667
491.161	13.3333
489.783	10.6667
488.405	8
487.027	11.6667
485.649	6.33333
484.268	7
482.889	6.33333
481.51	10.3333
480.129	7.33333
478.75	7.33333
477.368	5.66667
475.986	9.66667
474.604	5.66667
473.221	8.33333
471.839	9.66667
470.456	7.66667
469.073	6.66667
467.69	9
466.307	9.66667
464.921	7.66667
463.537	7.33333
462.151	5.66667
460.767	7.33333
459.38	6.33333
457.993	4.33333
456.606	7.66667
455.219	4
453.832	5.66667
452.444	3.33333
451.056	6
449.668	7
448.278	7
446.89	7.66667
445.499	6.33333
444.11	7.66667
442.719	8
441.327	5.33333
439.936	6.33333
438.544	9.33333
437.152	7
435.76	8.66667
434.367	10
432.975	8
431.579	5
430.186	7
428.791	9.33333
427.398	7
426.002	10.3333
424.606	7.66667
423.211	8.33333
421.815	6
420.418	10
419.021	8
417.624	7.66667
416.225	5.33333
414.827	6.66667
413.43	4.33333
412.029	5.33333
410.631	10.3333
409.231	5.33333
407.83	4.66667
406.429	5.33333
405.03	7.66667
403.629	8.33333
402.227	7.66667
400.825	6.66667
399.421	9.66667
398.019	11.3333
396.617	6
395.212	5.33333
393.809	7.33333
392.404	5
391	10
389.595	8
388.189	8.66667
386.783	7.66667
385.377	6.66667
383.97	10.3333
382.563	10.3333
381.157	9.33333
379.747	7.66667
378.34	8.33333
376.932	8.33333
375.522	8.66667
374.112	11
372.704	5
371.294	9
369.883	9.66667
368.472	6.66667
367.061	7.66667
365.649	9.33333
364.238	6.66667
362.826	7.66667
361.411	5.33333
359.999	7
358.585	9
357.172	9.33333
355.757	6.66667
354.342	10.3333
352.928	14.3333
351.513	9
350.097	13
348.68	6.66667
347.264	7
345.845	5.66667
344.429	8.33333
343.012	10
341.948	9.66667

File: W3L150_13_top.txt
692.206	1.66667
690.885	0
689.564	3.33333
688.241	0.333333
686.917	1
685.596	2
684.272	1
682.948	3
681.624	1
680.299	2
678.975	-3
677.65	1.66667
676.323	0.666667
674.998	3.66667
673.67	3
672.344	0
671.017	2
669.689	3
668.362	2.66667
667.034	2.66667
665.705	1.66667
664.376	2
663.045	4.66667
661.716	1.66667
660.387	4
659.055	6
657.725	2.66667
656.393	1.33333
655.063	3.33333
653.73	4.33333
652.398	-1
651.065	0.333333
649.732	4
648.399	1.66667
647.065	1.33333
645.729	3.33333
644.396	4
643.062	5.66667
641.725	1.66667
640.389	3
639.054	-0.666667
637.717	1
636.38	1
635.043	-0.333333
633.705	0.333333
632.368	0.333333
631.03	3.33333
629.689	2.33333
628.351	1.33333
627.011	5
625.672	2
624.331	4.33333
622.99	3.33333
621.651	2.33333
620.309	3
618.967	0
617.625	5
616.281	5.33333
614.939	5.33333
613.596	3.33333
612.251	4.33333
610.908	2.33333
609.563	3.66667
608.22	2.33333
606.874	1
605.528	1.66667
604.182	1.33333
602.836	4
601.49	3
600.143	-1
598.794	2.33333
597.447	2.66667
596.1	3
594.75	4
593.403	2.33333
592.053	2.66667
590.703	-0.666667
589.353	3
588.002	2
586.651	2
585.3	1.66667
583.949	1.66667
582.598	2
581.244	2
579.893	3.66667
578.539	0.666667
577.187	1
575.832	2.33333
574.478	1.66667
573.123	1.66667
571.768	3.66667
570.413	0.666667
569.057	5.66667
567.702	3
566.346	-0.333333
564.988	2.33333
563.632	4
562.273	1.66667
560.916	1
559.558	1
558.198	3.66667
556.839	5
555.48	3
554.12	4.66667
552.76	6.33333
551.4	5
550.039	11.3333
548.677	8
547.316	5.33333
545.953	8.66667
544.592	8.33333
543.229	10.3333
541.865	13.6667
540.501	8
539.137	11.6667
537.773	12
536.408	13.3333
535.044	17.6667
533.679	21
532.312	22.3333
530.946	34.6667
529.579	37
528.213	49.6667
526.845	69
525.477	97.6667
524.111	170.667
522.742	336.333
521.373	767.333
520.002	1195.67
518.633	1290.33
517.263	996
515.894	483.667
514.522	244.667
513.152	126.333
511.779	74
510.407	58
509.034	45.6667
507.663	36
506.29	23.3333
504.917	22.6667
503.543	21
502.167	16.6667
500.793	9.33333
499.419	12
498.043	11.6667
496.668	13.3333
495.291	6.66667
493.916	10.3333
492.539	8.33333
491.161	7.66667
489.783	9
488.405	7.33333
487.027	7.66667
485.649	6.33333
484.268	3.33333
482.889	7
481.51	3
480.129	4
478.75	4
477.368	2.33333
475.986	1.33333
474.604	3.66667
473.221	3
471.839	3.66667
470.456	3.33333
469.073	4.33333
467.69	3.33333
466.307	5.66667
464.921	3
463.537	1.66667
462.151	3
460.767	3.66667
459.38	2.66667
457.993	1
456.606	2.66667
455.219	2
453.832	2.33333
452.444	1.33333
451.056	3.33333
449.668	3.33333
448.278	3.33333
446.89	1.66667
445.499	4.66667
444.11	4
442.719	1.66667
441.327	4.33333
439.936	1.33333
438.544	3
437.152	3.33333
435.76	4
434.367	6
432.975	4.33333
431.579	5.66667
430.186	5
428.791	3
427.398	5
426.002	4.66667
424.606	4.33333
423.211	2.33333
421.815	4
420.418	-1.66667
419.021	2.33333
417.624	4
416.225	3
414.827	6.33333
413.43	2
412.029	4.66667
410.631	1.66667
409.231	4
407.83	5.33333
406.429	2.33333
405.03	4
403.629	2
402.227	4
400.825	3.66667
399.421	4
398.019	4.33333
396.617	4.33333
395.212	2.66667
393.809	3.33333
392.404	3.66667
391	3
389.595	1.66667
388.189	3.33333
386.783	6.66667
385.377	5.33333
383.97	4.66667
382.563	2.33333
381.157	2.66667
379.747	4.66667
378.34	3.66667
376.932	4
375.522	2.33333
374.112	4.33333
372.704	1.66667
371.294	6.33333
369.883	1
368.472	3
367.061	1
365.649	4
364.238	3
362.826	1.33333
361.411	4.33333
359.999	4.33333
358.585	6.66667
357.172	5.66667
355.757	4.33333
354.342	4.66667
352.928	4
351.513	4
350.097	4
348.68	3.33333
347.264	5
345.845	4.66667
344.429	5.33333
343.012	4.66667
341.948	4.33333

File: W3L150_14_bottom.txt
692.206	-1.33333
690.885	0
689.564	-0.666667
688.241	0.666667
686.917	-0.333333
685.596	1.33333
684.272	1.33333
682.948	0.666667
681.624	2.33333
680.299	2.66667
678.975	-0.333333
677.65	0
676.323	4
674.998	1.66667
673.67	2.33333
672.344	3
671.017	3
669.689	3
668.362	4
667.034	3.33333
665.705	2.33333
664.376	3.33333
663.045	1.33333
661.716	3.33333
660.387	2
659.055	1.66667
657.725	2.33333
656.393	2
655.063	0
653.73	0.666667
652.398	1
651.065	2
649.732	1.33333
648.399	2.33333
647.065	-0.666667
645.729	1
644.396	1.66667
643.062	2
641.725	3
640.389	2
639.054	3
637.717	1.33333
636.38	1.66667
635.043	3
633.705	-0.666667
632.368	2.33333
631.03	2.66667
629.689	4
628.351	2.66667
627.011	1.66667
625.672	3.33333
624.331	3
622.99	0.333333
621.651	4.33333
620.309	2.33333
618.967	3
617.625	1.33333
616.281	3.66667
614.939	1
613.596	2.33333
612.251	2.33333
610.908	1
609.563	1.33333
608.22	2
606.874	-0.333333
605.528	3.33333
604.182	3
602.836	3.66667
601.49	-1.66667
600.143	1.33333
598.794	0.666667
597.447	2
596.1	0
594.75	0.666667
593.403	3.33333
592.053	1.66667
590.703	1.33333
589.353	2.33333
588.002	0.666667
586.651	1
585.3	2.66667
583.949	3.66667
582.598	2.33333
581.244	1.66667
579.893	2.33333
578.539	2
577.187	1
575.832	3
574.478	1.33333
573.123	0.333333
571.768	2
570.413	1.66667
569.057	2
567.702	1.66667
566.346	2.66667
564.988	1
563.632	4
562.273	3.33333
560.916	1.66667
559.558	3.33333
558.198	1.66667
556.839	1
555.48	3.66667
554.12	3
552.76	3
551.4	3
550.039	4
548.677	3
547.316	6.33333
545.953	6
544.592	7
543.229	3.33333
541.865	10.6667
540.501	9
539.137	14
537.773	13.3333
536.408	14.3333
535.044	17
533.679	18.6667
532.312	21.6667
530.946	26
529.579	33.6667
528.213	45.3333
526.845	57.6667
525.477	81
524.111	151
522.742	279.667
521.373	626.333
520.002	1025.67
518.633	1132.67
517.263	1029.67
515.894	583.333
514.522	257.667
513.152	139.333
511.779	77.3333
510.407	57
509.034	40.6667
507.663	33
506.29	26.6667
504.917	20
503.543	16
502.167	15.6667
500.793	14.3333
499.419	11
498.043	9.66667
496.668	6.33333
495.291	7
493.916	8.33333
492.539	5
491.161	5
489.783	7.66667
488.405	5.33333
487.027	6.66667
485.649	3.33333
484.268	5
482.889	7
481.51	4
480.129	3
478.75	3
477.368	2.66667
475.986	6
474.604	3.66667
473.221	-0.333333
471.839	3.66667
470.456	-0.333333
469.073	0.333333
467.69	2.66667
466.307	4.66667
464.921	1.66667
463.537	0.333333
462.151	0
460.767	1.66667
459.38	2.66667
457.993	-0.666667
456.606	1
455.219	1.66667
453.832	1
452.444	0
451.056	0.333333
449.668	2
448.278	5
446.89	2
445.499	0.333333
444.11	1.33333
442.719	4.33333
441.327	3.33333
439.936	3.33333
438.544	-1
437.152	3.66667
435.76	6.33333
434.367	3.66667
432.975	4.33333
431.579	4.66667
430.186	2
428.791	1.66667
427.398	3
426.002	4
424.606	3.66667
423.211	1.66667
421.815	0.666667
420.418	4.33333
419.021	3.66667
417.624	1.33333
416.225	2
414.827	0.666667
413.43	2
412.029	2.33333
410.631	1.33333
409.231	0.666667
407.83	1
406.429	4.33333
405.03	1.33333
403.629	1
402.227	2.33333
400.825	1
399.421	2
398.019	3.66667
396.617	2
395.212	1.33333
393.809	5
392.404	3
391	4.66667
389.595	2.33333
388.189	2
386.783	1.33333
385.377	2.33333
383.97	4
382.563	1.33333
381.157	1.33333
379.747	0.666667
378.34	3.66667
376.932	1.66667
375.522	1.66667
374.112	0.666667
372.704	1.66667
371.294	3.66667
369.883	4
368.472	0.333333
367.061	2
365.649	4
364.238	4.33333
362.826	1.33333
361.411	1.33333
359.999	3.33333
358.585	4
357.172	5.66667
355.757	2.33333
354.342	3.33333
352.928	4.66667
351.513	2.33333
350.097	3
348.68	0.666667
347.264	3.66667
345.845	4.66667
344.429	4
343.012	-0.333333
341.948	2

File: W3L150_14_top.txt
692.206	2
690.885	4
689.564	2
688.241	2.33333
686.917	1
685.596	0.666667
684.272	3
682.948	2
681.624	2
680.299	2
678.975	2
677.65	2.66667
676.323	5
674.998	1.66667
673.67	2.66667
672.344	2
671.017	0.666667
669.689	3
668.362	1.66667
667.034	2.33333
665.705	1.66667
664.376	4
663.045	1.66667
661.716	4
660.387	3.33333
659.055	3.66667
657.725	4
656.393	1.66667
655.063	2.66667
653.73	4
652.398	3.66667
651.065	2
649.732	2.66667
648.399	3.33333
647.065	3.66667
645.729	4.33333
644.396	2.33333
643.062	2.66667
641.725	4.66667
640.389	1.33333
639.054	3
637.717	1.66667
636.38	2
635.043	1.33333
633.705	1.33333
632.368	4.66667
631.03	2
629.689	4.33333
628.351	2.66667
627.011	6.33333
625.672	5.33333
624.331	5.66667
622.99	7.33333
621.651	4.66667
620.309	3.33333
618.967	5.66667
617.625	7.33333
616.281	7.66667
614.939	3.66667
613.596	5.33333
612.251	3.66667
610.908	3.66667
609.563	2
608.22	3.66667
606.874	1.66667
605.528	1.66667
604.182	1
602.836	2.66667
601.49	2.33333
600.143	2.66667
598.794	0.666667
597.447	4
596.1	1
594.75	2.66667
593.403	1.33333
592.053	1.33333
590.703	1.33333
589.353	2
588.002	1.66667
586.651	1.33333
585.3	4
583.949	-1.66667
582.598	2.66667
581.244	1.66667
579.893	0.666667
578.539	3.66667
577.187	-0.333333
575.832	3.33333
574.478	2.66667
573.123	1
571.768	2.66667
570.413	3.33333
569.057	3.66667
567.702	5.66667
566.346	3.33333
564.988	2.33333
563.632	4.33333
562.273	4
560.916	5
559.558	2.33333
558.198	4.33333
556.839	5.33333
555.48	6.66667
554.12	4.33333
552.76	5.66667
551.4	7.33333
550.039	8.33333
548.677	8.33333
547.316	8.66667
545.953	7.66667
544.592	7.66667
543.229	9.33333
541.865	13.3333
540.501	13
539.137	14.3333
537.773	15.3333
536.408	20
535.044	20.3333
533.679	24.3333
532.312	28.3333
530.946	34.3333
529.579	44.6667
528.213	53
526.845	75
525.477	110
524.111	183.667
522.742	361.333
521.373	814
520.002	1250.67
518.633	1226.33
517.263	1048.33
515.894	589.333
514.522	272.333
513.152	152.333
511.779	91.3333
510.407	63.6667
509.034	46.3333
507.663	39
506.29	31.3333
504.917	25.3333
503.543	19
502.167	18.3333
500.793	10.6667
499.419	9.66667
498.043	7.66667
496.668	12.3333
495.291	9
493.916	7.66667
492.539	8.33333
491.161	6.33333
489.783	7
488.405	4.66667
487.027	9
485.649	5.33333
484.268	6
482.889	6.33333
481.51	7
480.129	5.66667
478.75	3.66667
477.368	5.66667
475.986	3
474.604	4.33333
473.221	4.66667
471.839	2.33333
470.456	3.66667
469.073	4.66667
467.69	4.33333
466.307	5.33333
464.921	3
463.537	3.66667
462.151	2.66667
460.767	3.66667
459.38	2.33333
457.993	2.33333
456.606	2
455.219	3.33333
453.832	2.33333
452.444	4
451.056	1.66667
449.668	1.33333
448.278	1.66667
446.89	2.66667
445.499	5.66667
444.11	4.66667
442.719	5.33333
441.327	3
439.936	5.66667
438.544	1.66667
437.152	6.33333
435.76	4
434.367	7.66667
432.975	3.66667
431.579	3.66667
430.186	2.33333
428.791	6
427.398	5.66667
426.002	4.66667
424.606	3.33333
423.211	3
421.815	5.66667
420.418	1
419.021	6.66667
417.624	3
416.225	4
414.827	5.66667
413.43	4.33333
412.029	4.66667
410.631	3.66667
409.231	5
407.83	4
406.429	4.66667
405.03	4
403.629	3.66667
402.227	2
400.825	4
399.421	3.33333
398.019	7
396.617	3.33333
395.212	2.66667
393.809	3.66667
392.404	4.33333
391	4.33333
389.595	1
388.189	4
386.783	3
385.377	6.33333
383.97	3.33333
382.563	4
381.157	3.33333
379.747	1.66667
378.34	4.33333
376.932	4
375.522	2.66667
374.112	4.33333
372.704	3
371.294	2.66667
369.883	3
368.472	4.33333
367.061	3.66667
365.649	2
364.238	6.33333
362.826	4.66667
361.411	6
359.999	7
358.585	3
357.172	6.66667
355.757	4
354.342	3.33333
352.928	2.33333
351.513	5.33333
350.097	5.66667
348.68	6.66667
347.264	4.33333
345.845	4
344.429	7
343.012	7
341.948	7.33333