Folder: pypi-mirror-373/packages/dopes/dopes-2025.1.0.tar.gz/dopes-2025.1.0/examples/data_analysis/raman_silicon/data/514nm_1%_15s (part 6)

File: W3L150_18_top.txt
692.206	4.33333
690.885	4
689.564	2.66667
688.241	3.33333
686.917	2.66667
685.596	5.33333
684.272	5.66667
682.948	1
681.624	6.66667
680.299	5
678.975	5
677.65	4.33333
676.323	6.66667
674.998	4.33333
673.67	6.66667
672.344	6
671.017	5
669.689	6.33333
668.362	8
667.034	6.33333
665.705	2.33333
664.376	7
663.045	6
661.716	0.333333
660.387	5.66667
659.055	2.66667
657.725	6
656.393	4.66667
655.063	3.33333
653.73	5.33333
652.398	6
651.065	6.33333
649.732	6
648.399	4.66667
647.065	3.33333
645.729	5.66667
644.396	4.66667
643.062	5.66667
641.725	4.33333
640.389	4.33333
639.054	5
637.717	4.33333
636.38	2
635.043	6.33333
633.705	6.33333
632.368	5.33333
631.03	3.33333
629.689	6
628.351	5.66667
627.011	6.33333
625.672	4.66667
624.331	5.33333
622.99	9.33333
621.651	7.66667
620.309	8.66667
618.967	5.33333
617.625	6
616.281	7.66667
614.939	6.33333
613.596	7
612.251	8
610.908	7.66667
609.563	6
608.22	6
606.874	8
605.528	6
604.182	8.66667
602.836	6
601.49	4
600.143	6
598.794	4.66667
597.447	7
596.1	4.66667
594.75	5.66667
593.403	2.66667
592.053	6.33333
590.703	2
589.353	5.33333
588.002	4.66667
586.651	3
585.3	4.33333
583.949	5
582.598	5.66667
581.244	4.66667
579.893	5.66667
578.539	3.66667
577.187	4
575.832	5.66667
574.478	4.33333
573.123	3
571.768	3.33333
570.413	4
569.057	7.33333
567.702	4.33333
566.346	7.33333
564.988	7.33333
563.632	3.66667
562.273	5.33333
560.916	3
559.558	5
558.198	5.66667
556.839	5.33333
555.48	8.33333
554.12	9.33333
552.76	7.33333
551.4	6
550.039	9.33333
548.677	10.3333
547.316	7.33333
545.953	8.66667
544.592	12.3333
543.229	13.3333
541.865	10.3333
540.501	15
539.137	13
537.773	16
536.408	19.3333
535.044	21.6667
533.679	23.3333
532.312	29
530.946	32.3333
529.579	38.6667
528.213	43.3333
526.845	56
525.477	89
524.111	143.333
522.742	276
521.373	594.667
520.002	905
518.633	964
517.263	1085.33
515.894	778.333
514.522	408.333
513.152	193.333
511.779	112
510.407	80
509.034	54
507.663	40.6667
506.29	28.3333
504.917	25.6667
503.543	21.3333
502.167	21
500.793	18
499.419	17.6667
498.043	16
496.668	14.3333
495.291	14.6667
493.916	8.33333
492.539	11.3333
491.161	7.33333
489.783	13.6667
488.405	10.3333
487.027	13.3333
485.649	13.3333
484.268	11.3333
482.889	8
481.51	7.66667
480.129	6.66667
478.75	7.66667
477.368	8
475.986	4.33333
474.604	5.33333
473.221	6.66667
471.839	3.66667
470.456	8
469.073	4.33333
467.69	6.66667
466.307	3.66667
464.921	7.33333
463.537	2.33333
462.151	4
460.767	5.33333
459.38	7.66667
457.993	4.33333
456.606	5.33333
455.219	5.66667
453.832	4.66667
452.444	7.66667
451.056	5
449.668	6.66667
448.278	7
446.89	5.33333
445.499	5.66667
444.11	8
442.719	6
441.327	6
439.936	6.66667
438.544	8.33333
437.152	5
435.76	4
434.367	10.6667
432.975	7.33333
431.579	5
430.186	6
428.791	7.33333
427.398	5.66667
426.002	5
424.606	10
423.211	4.33333
421.815	7.66667
420.418	7.66667
419.021	5.66667
417.624	4.66667
416.225	6.33333
414.827	5.66667
413.43	8.66667
412.029	2
410.631	7.66667
409.231	6.33333
407.83	8.66667
406.429	7
405.03	6.33333
403.629	6
402.227	5
400.825	6
399.421	6
398.019	6.66667
396.617	10
395.212	4.33333
393.809	7
392.404	5.33333
391	4.66667
389.595	5
388.189	3
386.783	6
385.377	9.33333
383.97	7
382.563	7
381.157	7
379.747	7.66667
378.34	3.66667
376.932	8
375.522	7
374.112	8
372.704	7.66667
371.294	4.66667
369.883	5.66667
368.472	4.33333
367.061	5.33333
365.649	2.66667
364.238	4.66667
362.826	6.33333
361.411	7.66667
359.999	5.66667
358.585	10
357.172	5.66667
355.757	7.66667
354.342	5.66667
352.928	4
351.513	5
350.097	6.66667
348.68	8
347.264	4.66667
345.845	8
344.429	3.33333
343.012	8.33333
341.948	7.66667

File: W3L150_19_bottom.txt
692.206	2.66667
690.885	3.66667
689.564	2.33333
688.241	6.66667
686.917	6
685.596	3
684.272	4.33333
682.948	3.33333
681.624	3.66667
680.299	6
678.975	3.66667
677.65	5.33333
676.323	5
674.998	5.33333
673.67	4
672.344	7.33333
671.017	-0.333333
669.689	2.66667
668.362	5.33333
667.034	5
665.705	7.66667
664.376	5.33333
663.045	6.66667
661.716	4.66667
660.387	6.66667
659.055	5.33333
657.725	4.66667
656.393	7.66667
655.063	6
653.73	7
652.398	3.33333
651.065	5.66667
649.732	5
648.399	2.33333
647.065	5.66667
645.729	5
644.396	6
643.062	4.33333
641.725	4.66667
640.389	7
639.054	6
637.717	5.66667
636.38	4.66667
635.043	3
633.705	5.66667
632.368	6
631.03	3.33333
629.689	5
628.351	5
627.011	8.33333
625.672	3
624.331	6.66667
622.99	5.33333
621.651	5
620.309	7.33333
618.967	3.33333
617.625	5.66667
616.281	10
614.939	7.33333
613.596	4.66667
612.251	4.33333
610.908	6.66667
609.563	6.66667
608.22	4.66667
606.874	7
605.528	8.33333
604.182	4.66667
602.836	5.33333
601.49	5.33333
600.143	2.66667
598.794	5.66667
597.447	6.33333
596.1	4.33333
594.75	3.33333
593.403	5.33333
592.053	2.66667
590.703	7
589.353	5.66667
588.002	4.66667
586.651	5.33333
585.3	0
583.949	5
582.598	5
581.244	5.33333
579.893	5
578.539	3
577.187	3.33333
575.832	4
574.478	3.33333
573.123	2.33333
571.768	4.33333
570.413	6.33333
569.057	3.33333
567.702	5.33333
566.346	6.33333
564.988	5.66667
563.632	4.33333
562.273	4.33333
560.916	6.33333
559.558	7
558.198	6.33333
556.839	6.66667
555.48	5.66667
554.12	8
552.76	6.66667
551.4	6
550.039	4
548.677	10
547.316	11.3333
545.953	8.33333
544.592	11
543.229	10
541.865	12.6667
540.501	13.3333
539.137	13.6667
537.773	17
536.408	14.6667
535.044	18
533.679	21.6667
532.312	27.6667
530.946	32.6667
529.579	38
528.213	48.3333
526.845	63.3333
525.477	90
524.111	149.667
522.742	303
521.373	724.667
520.002	1009
518.633	849.667
517.263	766.667
515.894	702.667
514.522	374.333
513.152	186.667
511.779	104
510.407	66.6667
509.034	43.6667
507.663	33
506.29	29.3333
504.917	24.3333
503.543	21.3333
502.167	16.6667
500.793	20.3333
499.419	12
498.043	13
496.668	13
495.291	11.3333
493.916	11.3333
492.539	8.33333
491.161	11.6667
489.783	12
488.405	9.66667
487.027	8.33333
485.649	7
484.268	4
482.889	11
481.51	6.33333
480.129	4.66667
478.75	9.66667
477.368	5.33333
475.986	7
474.604	7.66667
473.221	5.66667
471.839	6.33333
470.456	7.66667
469.073	8.33333
467.69	3.66667
466.307	5.33333
464.921	5
463.537	7
462.151	7.33333
460.767	2.66667
459.38	5.33333
457.993	4
456.606	3
455.219	1.33333
453.832	4.66667
452.444	6.66667
451.056	6
449.668	5.33333
448.278	5
446.89	6
445.499	5
444.11	3.66667
442.719	5.66667
441.327	5.66667
439.936	6
438.544	5
437.152	7.66667
435.76	6.66667
434.367	3
432.975	5.66667
431.579	6
430.186	8.33333
428.791	7.66667
427.398	7
426.002	4.33333
424.606	4.33333
423.211	3.66667
421.815	8.66667
420.418	7.66667
419.021	5.66667
417.624	7
416.225	5.33333
414.827	7.66667
413.43	5.33333
412.029	5.66667
410.631	7
409.231	6.33333
407.83	6
406.429	4
405.03	9.33333
403.629	3.66667
402.227	7.33333
400.825	3.33333
399.421	7.66667
398.019	8.33333
396.617	3
395.212	6
393.809	5.66667
392.404	3.33333
391	9.66667
389.595	5.66667
388.189	0.666667
386.783	7.66667
385.377	7
383.97	5.33333
382.563	3
381.157	6.66667
379.747	8.33333
378.34	4.33333
376.932	5.33333
375.522	6
374.112	6.33333
372.704	6.66667
371.294	6.33333
369.883	6.33333
368.472	4.66667
367.061	6
365.649	5.66667
364.238	4.33333
362.826	8.33333
361.411	3.33333
359.999	8.33333
358.585	9
357.172	7
355.757	8
354.342	6
352.928	8
351.513	9.33333
350.097	4.66667
348.68	4.66667
347.264	7.66667
345.845	10.3333
344.429	8.66667
343.012	6.33333
341.948	6.33333

File: W3L150_19_top.txt
692.206	11.6667
690.885	8
689.564	6.66667
688.241	7.33333
686.917	8.33333
685.596	13.3333
684.272	11.6667
682.948	7.33333
681.624	9.33333
680.299	8.66667
678.975	13
677.65	7.33333
676.323	10.3333
674.998	10
673.67	11.3333
672.344	12.3333
671.017	11
669.689	10.6667
668.362	14
667.034	10.6667
665.705	9.66667
664.376	10
663.045	10.6667
661.716	11.3333
660.387	7.33333
659.055	14.3333
657.725	7.33333
656.393	10.3333
655.063	13
653.73	10.6667
652.398	10.3333
651.065	11.3333
649.732	10
648.399	11.3333
647.065	9.66667
645.729	10.6667
644.396	10.3333
643.062	12.6667
641.725	11.3333
640.389	10.3333
639.054	8
637.717	11.6667
636.38	13.6667
635.043	11.6667
633.705	11.6667
632.368	7.66667
631.03	12
629.689	11.3333
628.351	12
627.011	9.33333
625.672	8.66667
624.331	11
622.99	14
621.651	13.3333
620.309	12
618.967	12
617.625	12
616.281	18
614.939	10.3333
613.596	9.33333
612.251	11.3333
610.908	12.3333
609.563	10
608.22	13
606.874	13
605.528	8.66667
604.182	10
602.836	11.3333
601.49	11.3333
600.143	10.3333
598.794	10.6667
597.447	11.6667
596.1	9.33333
594.75	13
593.403	11.6667
592.053	9
590.703	10.3333
589.353	8
588.002	11
586.651	8.66667
585.3	9
583.949	8.33333
582.598	10.3333
581.244	10.6667
579.893	6.66667
578.539	10
577.187	12.6667
575.832	12.6667
574.478	10.6667
573.123	9
571.768	10.3333
570.413	12
569.057	8.33333
567.702	12.3333
566.346	13
564.988	11
563.632	14.6667
562.273	10.6667
560.916	12.6667
559.558	11.3333
558.198	10.3333
556.839	12.3333
555.48	14.6667
554.12	14
552.76	12.3333
551.4	13.3333
550.039	13.6667
548.677	15.6667
547.316	15
545.953	15.3333
544.592	13.6667
543.229	15.3333
541.865	16.3333
540.501	15
539.137	21
537.773	19.3333
536.408	22
535.044	23.3333
533.679	25.3333
532.312	29.6667
530.946	33.6667
529.579	43.6667
528.213	46.6667
526.845	59.3333
525.477	86.3333
524.111	140.667
522.742	283.667
521.373	587.667
520.002	893.667
518.633	864.333
517.263	895.333
515.894	781.667
514.522	452
513.152	231
511.779	123.333
510.407	75.6667
509.034	57.6667
507.663	49
506.29	35.6667
504.917	29.3333
503.543	25
502.167	25
500.793	19.6667
499.419	23
498.043	16
496.668	17.6667
495.291	18.3333
493.916	15
492.539	16
491.161	13.3333
489.783	15
488.405	14
487.027	11.3333
485.649	10.3333
484.268	15
482.889	11.6667
481.51	10
480.129	14
478.75	8.33333
477.368	14.6667
475.986	10
474.604	7
473.221	5.66667
471.839	6
470.456	12.3333
469.073	12.6667
467.69	11.3333
466.307	11.3333
464.921	11
463.537	12
462.151	11
460.767	10
459.38	10.3333
457.993	9.33333
456.606	7.33333
455.219	11.6667
453.832	10
452.444	8.33333
451.056	10.3333
449.668	11.3333
448.278	14
446.89	10.3333
445.499	10
444.11	11
442.719	13.3333
441.327	10.3333
439.936	11.6667
438.544	9
437.152	14.6667
435.76	9.66667
434.367	15.3333
432.975	11.6667
431.579	10
430.186	11
428.791	9.66667
427.398	14.3333
426.002	13.6667
424.606	7
423.211	10.6667
421.815	12
420.418	10.3333
419.021	9.33333
417.624	12
416.225	12
414.827	9.33333
413.43	13.3333
412.029	15.3333
410.631	13
409.231	8.66667
407.83	9.66667
406.429	13
405.03	10.3333
403.629	11.6667
402.227	8
400.825	13
399.421	10
398.019	12
396.617	8.33333
395.212	7.66667
393.809	12
392.404	10.3333
391	10.3333
389.595	8
388.189	11.6667
386.783	13
385.377	13.6667
383.97	11
382.563	9.66667
381.157	9.33333
379.747	10
378.34	15
376.932	8.66667
375.522	8
374.112	7.66667
372.704	10.3333
371.294	12
369.883	8.33333
368.472	10.6667
367.061	10.3333
365.649	11.6667
364.238	12.3333
362.826	13.6667
361.411	6
359.999	13.3333
358.585	8.33333
357.172	12
355.757	7.33333
354.342	10.6667
352.928	11.6667
351.513	11.3333
350.097	15
348.68	10
347.264	9.66667
345.845	8
344.429	10.3333
343.012	13.6667
341.948	10.6667

File: W3L150_20_bottom.txt
692.206	4
690.885	2.66667
689.564	2
688.241	0.666667
686.917	2.33333
685.596	3
684.272	6
682.948	1.33333
681.624	-0.333333
680.299	2
678.975	1.33333
677.65	4.66667
676.323	2.33333
674.998	4.66667
673.67	2.33333
672.344	3.66667
671.017	4
669.689	3.33333
668.362	3.33333
667.034	2.33333
665.705	5.33333
664.376	3.66667
663.045	1
661.716	3.33333
660.387	4
659.055	2.33333
657.725	3
656.393	3.66667
655.063	2.66667
653.73	2.66667
652.398	2.33333
651.065	4.66667
649.732	3.66667
648.399	3.33333
647.065	3.33333
645.729	4.66667
644.396	5.33333
643.062	5
641.725	2.33333
640.389	5.33333
639.054	3.66667
637.717	3.33333
636.38	3.66667
635.043	2.33333
633.705	3.66667
632.368	4.33333
631.03	7.33333
629.689	1.66667
628.351	3
627.011	3
625.672	0.666667
624.331	4.33333
622.99	3
621.651	8.33333
620.309	4
618.967	5.33333
617.625	6.33333
616.281	6
614.939	3
613.596	6
612.251	6
610.908	6.33333
609.563	5.66667
608.22	2
606.874	5
605.528	2.33333
604.182	2.66667
602.836	2.33333
601.49	1.33333
600.143	6.66667
598.794	1.66667
597.447	3
596.1	5.33333
594.75	3
593.403	2.33333
592.053	2.66667
590.703	-0.666667
589.353	0.666667
588.002	1.66667
586.651	3
585.3	2.33333
583.949	1.66667
582.598	2.33333
581.244	3
579.893	2.66667
578.539	5
577.187	1.66667
575.832	4
574.478	2.66667
573.123	4.33333
571.768	2
570.413	1
569.057	6.66667
567.702	4.66667
566.346	6
564.988	4.33333
563.632	1.66667
562.273	2
560.916	3.66667
559.558	6.66667
558.198	8.33333
556.839	7
555.48	5.33333
554.12	6.33333
552.76	8
551.4	6.66667
550.039	5.66667
548.677	7
547.316	9.66667
545.953	11.3333
544.592	10.3333
543.229	13.3333
541.865	12
540.501	13.6667
539.137	16
537.773	15.6667
536.408	15.6667
535.044	19
533.679	25
532.312	25
530.946	33.6667
529.579	38.3333
528.213	46
526.845	58.6667
525.477	91.3333
524.111	150.333
522.742	284.667
521.373	656
520.002	1006.33
518.633	942
517.263	931.333
515.894	977.667
514.522	618.667
513.152	297
511.779	150.667
510.407	87.3333
509.034	67
507.663	46
506.29	34.6667
504.917	27.3333
503.543	22
502.167	17.6667
500.793	18.6667
499.419	13
498.043	13.3333
496.668	14
495.291	10
493.916	10
492.539	11.3333
491.161	10.6667
489.783	6.33333
488.405	8.66667
487.027	6.66667
485.649	9.66667
484.268	6.66667
482.889	7
481.51	6.33333
480.129	5
478.75	7.66667
477.368	7.33333
475.986	4
474.604	9
473.221	6
471.839	6.33333
470.456	7.33333
469.073	5.33333
467.69	4
466.307	3.66667
464.921	4.66667
463.537	-0.333333
462.151	6
460.767	1.33333
459.38	2
457.993	5.33333
456.606	1
455.219	3.66667
453.832	3.66667
452.444	6.66667
451.056	3
449.668	4.33333
448.278	0
446.89	4.66667
445.499	6
444.11	4
442.719	4.66667
441.327	4.33333
439.936	5.33333
438.544	6.66667
437.152	5.66667
435.76	5.33333
434.367	6.33333
432.975	6
431.579	4.66667
430.186	2.66667
428.791	5
427.398	4
426.002	8
424.606	6
423.211	2
421.815	5
420.418	6
419.021	6
417.624	5.66667
416.225	3.33333
414.827	2.33333
413.43	2.33333
412.029	1.33333
410.631	5
409.231	2.33333
407.83	3.33333
406.429	5.66667
405.03	5
403.629	5.66667
402.227	4
400.825	3.66667
399.421	7
398.019	7.66667
396.617	3
395.212	8.33333
393.809	2
392.404	5.66667
391	4.33333
389.595	4.66667
388.189	4
386.783	5.33333
385.377	1
383.97	5.33333
382.563	4.66667
381.157	5.66667
379.747	5.33333
378.34	4.66667
376.932	4.33333
375.522	4.66667
374.112	3.33333
372.704	3.66667
371.294	5
369.883	5.33333
368.472	3.33333
367.061	7.33333
365.649	5.66667
364.238	5.66667
362.826	3.66667
361.411	5.33333
359.999	3
358.585	6
357.172	6
355.757	5.33333
354.342	4.33333
352.928	4.33333
351.513	6.66667
350.097	6.66667
348.68	6.33333
347.264	7.66667
345.845	5.33333
344.429	3.66667
343.012	4.66667
341.948	5.66667

File: W3L150_20_top.txt
692.206	2.66667
690.885	1.33333
689.564	-0.333333
688.241	0
686.917	1.33333
685.596	3.33333
684.272	2.66667
682.948	1.33333
681.624	3
680.299	3
678.975	3.33333
677.65	2.33333
676.323	5
674.998	1.33333
673.67	2.33333
672.344	3.33333
671.017	4.33333
669.689	4.66667
668.362	2.66667
667.034	3
665.705	4.33333
664.376	5
663.045	3.33333
661.716	5
660.387	4
659.055	2.33333
657.725	3
656.393	2.33333
655.063	3.33333
653.73	3.66667
652.398	3.66667
651.065	3.33333
649.732	2.66667
648.399	5.66667
647.065	2
645.729	1.33333
644.396	1.33333
643.062	0.333333
641.725	5.33333
640.389	3.33333
639.054	3.66667
637.717	5.66667
636.38	1.66667
635.043	4.33333
633.705	3.33333
632.368	4
631.03	3.66667
629.689	3.66667
628.351	3.33333
627.011	3
625.672	3.66667
624.331	3
622.99	7.33333
621.651	4.33333
620.309	4.66667
618.967	4.66667
617.625	3.66667
616.281	6.33333
614.939	5.33333
613.596	6.66667
612.251	5
610.908	6
609.563	3
608.22	4
606.874	4
605.528	6.66667
604.182	5
602.836	4.66667
601.49	4.33333
600.143	5.66667
598.794	0.666667
597.447	4.33333
596.1	4.33333
594.75	3
593.403	0.333333
592.053	3
590.703	4
589.353	5.33333
588.002	2.33333
586.651	0.666667
585.3	0.333333
583.949	3
582.598	4.66667
581.244	4
579.893	2
578.539	3.33333
577.187	4.66667
575.832	2
574.478	5.33333
573.123	1.66667
571.768	2.33333
570.413	4
569.057	3.66667
567.702	3.66667
566.346	4
564.988	5
563.632	3.66667
562.273	3
560.916	5.33333
559.558	6
558.198	6
556.839	5.66667
555.48	4.66667
554.12	8
552.76	8
551.4	7
550.039	5.66667
548.677	8
547.316	11.3333
545.953	6.66667
544.592	11.6667
543.229	12.3333
541.865	10
540.501	11
539.137	15
537.773	17.3333
536.408	17.3333
535.044	16
533.679	21
532.312	21.6667
530.946	34
529.579	33
528.213	46
526.845	61.3333
525.477	86.3333
524.111	146.333
522.742	313.333
521.373	634.333
520.002	979
518.633	905
517.263	825
515.894	816.667
514.522	526.333
513.152	249.333
511.779	143.333
510.407	83
509.034	55
507.663	43
506.29	36
504.917	26.3333
503.543	18.6667
502.167	19.6667
500.793	15.3333
499.419	13
498.043	17.6667
496.668	13.6667
495.291	10.6667
493.916	9.66667
492.539	10.3333
491.161	8
489.783	10
488.405	10.6667
487.027	9.66667
485.649	7
484.268	6
482.889	4
481.51	6.33333
480.129	4.33333
478.75	3
477.368	5
475.986	5.33333
474.604	4
473.221	8.66667
471.839	2.66667
470.456	3
469.073	6.33333
467.69	5.33333
466.307	5.66667
464.921	4.33333
463.537	4.33333
462.151	4.66667
460.767	4
459.38	2.66667
457.993	5
456.606	3.66667
455.219	5
453.832	0.666667
452.444	3.66667
451.056	4.66667
449.668	4.66667
448.278	7
446.89	2
445.499	1
444.11	4.33333
442.719	1.33333
441.327	5
439.936	6
438.544	4
437.152	3.33333
435.76	3.66667
434.367	6.66667
432.975	3.33333
431.579	4.33333
430.186	6
428.791	5.66667
427.398	5
426.002	1.33333
424.606	3
423.211	7.33333
421.815	5.66667
420.418	2.33333
419.021	5
417.624	3.33333
416.225	3.33333
414.827	6
413.43	6.33333
412.029	2.33333
410.631	2.33333
409.231	3
407.83	3.33333
406.429	5.33333
405.03	1.66667
403.629	1.33333
402.227	5.66667
400.825	6
399.421	2.66667
398.019	6
396.617	5
395.212	7
393.809	4.66667
392.404	5.33333
391	6.33333
389.595	5.33333
388.189	3
386.783	3
385.377	3.66667
383.97	6
382.563	4.66667
381.157	6
379.747	5.66667
378.34	5.33333
376.932	3
375.522	3.66667
374.112	2.66667
372.704	5.66667
371.294	2.33333
369.883	5
368.472	2.66667
367.061	3.66667
365.649	4
364.238	4
362.826	3
361.411	5
359.999	5
358.585	5.66667
357.172	4.66667
355.757	6.33333
354.342	4
352.928	5.33333
351.513	4.33333
350.097	6.33333
348.68	5
347.264	5.33333
345.845	9
344.429	4
343.012	3.66667
341.948	6

File: W3L150_21_bottom.txt
692.206	0.666667
690.885	1.33333
689.564	2.66667
688.241	2
686.917	1
685.596	1.66667
684.272	2.66667
682.948	2.33333
681.624	-1.66667
680.299	2
678.975	4
677.65	2
676.323	3.66667
674.998	5.33333
673.67	4.66667
672.344	3
671.017	2.66667
669.689	1.66667
668.362	5
667.034	5
665.705	0.666667
664.376	3.33333
663.045	3.33333
661.716	1.33333
660.387	3
659.055	1.33333
657.725	2.33333
656.393	2
655.063	2.66667
653.73	1.66667
652.398	1.66667
651.065	1.33333
649.732	4
648.399	4
647.065	2.33333
645.729	2.33333
644.396	2.33333
643.062	0.333333
641.725	2.66667
640.389	1.66667
639.054	4.33333
637.717	3.33333
636.38	4.33333
635.043	6.33333
633.705	3
632.368	2
631.03	5.33333
629.689	2.66667
628.351	-1
627.011	4
625.672	3
624.331	3.66667
622.99	2.66667
621.651	1
620.309	4.66667
618.967	4
617.625	3
616.281	4.33333
614.939	3
613.596	2.66667
612.251	1
610.908	4
609.563	3
608.22	2.66667
606.874	4
605.528	4.33333
604.182	4.66667
602.836	3.66667
601.49	1.33333
600.143	3
598.794	2.66667
597.447	3.66667
596.1	4
594.75	0.333333
593.403	4
592.053	-0.666667
590.703	1.66667
589.353	2
588.002	2.66667
586.651	2
585.3	2.33333
583.949	1.66667
582.598	3.33333
581.244	1.66667
579.893	2
578.539	2.33333
577.187	2.33333
575.832	3
574.478	0.666667
573.123	3
571.768	1.33333
570.413	1.33333
569.057	2.66667
567.702	6
566.346	0.333333
564.988	0.666667
563.632	1.66667
562.273	6.33333
560.916	0
559.558	1
558.198	5
556.839	2
555.48	4.33333
554.12	4.66667
552.76	5
551.4	5
550.039	9.33333
548.677	5.66667
547.316	4.66667
545.953	7.33333
544.592	7
543.229	10
541.865	10.6667
540.501	10
539.137	11
537.773	12
536.408	13
535.044	18.3333
533.679	19.3333
532.312	21
530.946	24.3333
529.579	25.6667
528.213	38
526.845	51.3333
525.477	68
524.111	107
522.742	228.667
521.373	446.333
520.002	725
518.633	695.333
517.263	761.333
515.894	797.667
514.522	536
513.152	266.667
511.779	123.333
510.407	78.6667
509.034	51.3333
507.663	40.6667
506.29	26.6667
504.917	23
503.543	21
502.167	17.3333
500.793	15.6667
499.419	16.6667
498.043	5.66667
496.668	11.6667
495.291	9
493.916	8
492.539	8.66667
491.161	4.66667
489.783	8
488.405	8.33333
487.027	5.66667
485.649	4.66667
484.268	5
482.889	5.33333
481.51	8.33333
480.129	3.66667
478.75	5.33333
477.368	3.66667
475.986	2.66667
474.604	6.33333
473.221	4.66667
471.839	5
470.456	3.66667
469.073	5
467.69	2.33333
466.307	4
464.921	4.33333
463.537	3
462.151	2
460.767	1
459.38	3
457.993	-0.666667
456.606	3
455.219	6
453.832	5.33333
452.444	3.33333
451.056	3.66667
449.668	4
448.278	1.66667
446.89	2
445.499	2
444.11	4
442.719	3.33333
441.327	1.33333
439.936	4
438.544	2.33333
437.152	5
435.76	2.33333
434.367	0.666667
432.975	2
431.579	4
430.186	2.66667
428.791	4.33333
427.398	5.33333
426.002	3.66667
424.606	3.66667
423.211	4.66667
421.815	3.66667
420.418	4
419.021	3.33333
417.624	5.33333
416.225	3.66667
414.827	3
413.43	3.33333
412.029	3
410.631	2
409.231	5
407.83	5
406.429	3
405.03	3.33333
403.629	3.33333
402.227	3
400.825	2
399.421	4.66667
398.019	5
396.617	5.33333
395.212	1.66667
393.809	5.66667
392.404	3
391	4
389.595	1
388.189	4
386.783	2.66667
385.377	4
383.97	4.33333
382.563	4.66667
381.157	4.33333
379.747	2
378.34	4
376.932	2.33333
375.522	4.66667
374.112	3
372.704	3.66667
371.294	3.33333
369.883	3.66667
368.472	4.33333
367.061	5.33333
365.649	4
364.238	4
362.826	4.33333
361.411	7
359.999	5.33333
358.585	6.66667
357.172	6.33333
355.757	4.33333
354.342	4.33333
352.928	4.66667
351.513	5.66667
350.097	4
348.68	2.33333
347.264	4.33333
345.845	2.66667
344.429	3.33333
343.012	5
341.948	4.66667

File: W3L150_21_top.txt
692.206	0
690.885	-0.333333
689.564	2.66667
688.241	2
686.917	1.66667
685.596	3.33333
684.272	0
682.948	2
681.624	1.66667
680.299	3.66667
678.975	2
677.65	1.33333
676.323	3.33333
674.998	2.66667
673.67	2.33333
672.344	3.33333
671.017	3.33333
669.689	3.33333
668.362	1.33333
667.034	1.66667
665.705	6
664.376	4
663.045	2
661.716	1.33333
660.387	5
659.055	4.33333
657.725	1.66667
656.393	2
655.063	4.33333
653.73	2
652.398	2
651.065	2.66667
649.732	3
648.399	1.66667
647.065	2
645.729	3.33333
644.396	0.666667
643.062	0.666667
641.725	2.33333
640.389	2.33333
639.054	3
637.717	0.333333
636.38	6.33333
635.043	3.33333
633.705	1.66667
632.368	2.33333
631.03	1.33333
629.689	2.66667
628.351	3
627.011	4.66667
625.672	1.66667
624.331	2.66667
622.99	2.66667
621.651	4.33333
620.309	3.33333
618.967	4.66667
617.625	3.33333
616.281	5.66667
614.939	3.33333
613.596	3
612.251	5
610.908	6.33333
609.563	1.66667
608.22	4
606.874	4.66667
605.528	3
604.182	0.666667
602.836	2
601.49	1.66667
600.143	1.66667
598.794	0
597.447	2.33333
596.1	2
594.75	2.66667
593.403	2.66667
592.053	2.33333
590.703	4.33333
589.353	1.33333
588.002	1
586.651	1.66667
585.3	0.666667
583.949	3
582.598	0.333333
581.244	2.66667
579.893	3
578.539	1.33333
577.187	0
575.832	3
574.478	5
573.123	2
571.768	3.66667
570.413	4.33333
569.057	4
567.702	2
566.346	1.66667
564.988	3.33333
563.632	6.33333
562.273	2.66667
560.916	5.66667
559.558	4
558.198	3.33333
556.839	4
555.48	0.333333
554.12	6
552.76	5.66667
551.4	5.33333
550.039	4.66667
548.677	9.66667
547.316	7.33333
545.953	6.33333
544.592	7
543.229	10.3333
541.865	8
540.501	12.3333
539.137	12.3333
537.773	14.3333
536.408	16.3333
535.044	15
533.679	17
532.312	19.6667
530.946	24.6667
529.579	31.6667
528.213	39.6667
526.845	53.6667
525.477	76.6667
524.111	122
522.742	234.333
521.373	483.333
520.002	768.667
518.633	749.333
517.263	770
515.894	903
514.522	654.333
513.152	324
511.779	165.333
510.407	95.3333
509.034	58.3333
507.663	48
506.29	33.6667
504.917	28
503.543	18.3333
502.167	21
500.793	15
499.419	16
498.043	11.6667
496.668	8.33333
495.291	13
493.916	8
492.539	7.66667
491.161	8.33333
489.783	8.66667
488.405	7
487.027	6.33333
485.649	5
484.268	4.66667
482.889	3.66667
481.51	5
480.129	4.66667
478.75	6.66667
477.368	5
475.986	4.33333
474.604	4.66667
473.221	2.66667
471.839	4.33333
470.456	3.33333
469.073	2.66667
467.69	3.33333
466.307	2.33333
464.921	0.666667
463.537	2
462.151	3.66667
460.767	0.666667
459.38	0.333333
457.993	6.66667
456.606	3
455.219	3
453.832	3.33333
452.444	5.33333
451.056	3
449.668	2.33333
448.278	4
446.89	5.33333
445.499	2.33333
444.11	4.66667
442.719	4
441.327	2.66667
439.936	2.66667
438.544	5.33333
437.152	4.33333
435.76	2
434.367	3
432.975	3.33333
431.579	6
430.186	3.66667
428.791	4.66667
427.398	2.66667
426.002	5.33333
424.606	3.66667
423.211	2
421.815	2
420.418	3.66667
419.021	2
417.624	3.33333
416.225	4
414.827	6
413.43	3.33333
412.029	5.33333
410.631	3
409.231	3.33333
407.83	2.66667
406.429	3.66667
405.03	4.66667
403.629	4
402.227	5.66667
400.825	2.33333
399.421	3.66667
398.019	2.66667
396.617	3.66667
395.212	5
393.809	1.66667
392.404	0.666667
391	4
389.595	4.33333
388.189	2
386.783	3.66667
385.377	1.66667
383.97	3
382.563	3
381.157	2.66667
379.747	3
378.34	4.66667
376.932	2
375.522	3
374.112	3.33333
372.704	3.33333
371.294	3
369.883	5
368.472	4.33333
367.061	4.66667
365.649	3
364.238	5.33333
362.826	4
361.411	2.33333
359.999	1.66667
358.585	2.66667
357.172	4.66667
355.757	5.33333
354.342	3.66667
352.928	3
351.513	6
350.097	3.33333
348.68	4.33333
347.264	5.66667
345.845	0.333333
344.429	4
343.012	5.33333
341.948	8