Folder: pypi-mirror-373/packages/dopes/dopes-2025.1.0.tar.gz/dopes-2025.1.0/examples/data_analysis/raman_silicon/data/514nm_1%_15s (part 7)

File: W3L150_22_bottom.txt
692.206	2.33333
690.885	0
689.564	3.66667
688.241	3
686.917	3.66667
685.596	3.66667
684.272	1.33333
682.948	6
681.624	2.66667
680.299	4.66667
678.975	1
677.65	3.33333
676.323	5
674.998	5.33333
673.67	2.33333
672.344	2
671.017	4
669.689	6
668.362	3.66667
667.034	7.66667
665.705	1
664.376	4.33333
663.045	5
661.716	4.33333
660.387	4.66667
659.055	4.33333
657.725	6
656.393	3
655.063	5.33333
653.73	3
652.398	1
651.065	4.33333
649.732	2.66667
648.399	3.33333
647.065	6
645.729	6.33333
644.396	3.66667
643.062	1
641.725	5.33333
640.389	3.33333
639.054	4
637.717	3
636.38	4.33333
635.043	3.66667
633.705	2
632.368	6.66667
631.03	3.66667
629.689	2.33333
628.351	4
627.011	4.33333
625.672	5.33333
624.331	3.66667
622.99	6.66667
621.651	8.33333
620.309	6
618.967	4.33333
617.625	8.33333
616.281	6.33333
614.939	5
613.596	8
612.251	3.66667
610.908	6.66667
609.563	5.66667
608.22	4
606.874	2
605.528	5.66667
604.182	4.33333
602.836	3
601.49	3.66667
600.143	5.66667
598.794	3
597.447	7
596.1	3.66667
594.75	4.66667
593.403	6.33333
592.053	4
590.703	5.66667
589.353	5.33333
588.002	2.66667
586.651	3.33333
585.3	2.66667
583.949	3.66667
582.598	2
581.244	1.33333
579.893	5.66667
578.539	4.66667
577.187	3.33333
575.832	2.66667
574.478	3
573.123	5
571.768	2.66667
570.413	5
569.057	2.66667
567.702	7.66667
566.346	0.666667
564.988	4
563.632	6
562.273	7
560.916	3
559.558	4
558.198	5
556.839	8.66667
555.48	6
554.12	5
552.76	5.33333
551.4	7
550.039	8.33333
548.677	6.33333
547.316	9.33333
545.953	8.66667
544.592	11.6667
543.229	11.6667
541.865	14.6667
540.501	12.3333
539.137	14.6667
537.773	18.3333
536.408	15.6667
535.044	20
533.679	20.6667
532.312	28.3333
530.946	29.3333
529.579	35.6667
528.213	48
526.845	68
525.477	92.3333
524.111	155.667
522.742	319
521.373	699
520.002	1070
518.633	957
517.263	746
515.894	815.333
514.522	692
513.152	368.333
511.779	172.667
510.407	106.667
509.034	71.3333
507.663	51.3333
506.29	29.3333
504.917	28
503.543	27
502.167	20
500.793	18
499.419	16
498.043	11.3333
496.668	14.6667
495.291	13
493.916	11
492.539	10
491.161	5
489.783	9
488.405	9.33333
487.027	8.66667
485.649	8
484.268	7.66667
482.889	9
481.51	8.66667
480.129	6.66667
478.75	6.66667
477.368	5.66667
475.986	6.33333
474.604	6.66667
473.221	5.66667
471.839	5.33333
470.456	8.33333
469.073	5.66667
467.69	6.33333
466.307	4.33333
464.921	4.66667
463.537	6.33333
462.151	4.66667
460.767	5
459.38	5.33333
457.993	1.33333
456.606	2.66667
455.219	5
453.832	1.66667
452.444	3.66667
451.056	4.33333
449.668	2.66667
448.278	4.66667
446.89	4.66667
445.499	4
444.11	5.66667
442.719	1.66667
441.327	5.66667
439.936	6
438.544	4.66667
437.152	5.33333
435.76	7
434.367	4
432.975	7.33333
431.579	6
430.186	5.66667
428.791	6
427.398	6
426.002	6.66667
424.606	2.33333
423.211	5
421.815	-0.666667
420.418	7.66667
419.021	4.33333
417.624	5.66667
416.225	5.66667
414.827	5.33333
413.43	7.66667
412.029	4.33333
410.631	6.33333
409.231	6.66667
407.83	4
406.429	5
405.03	8
403.629	5.33333
402.227	3.33333
400.825	5.66667
399.421	3
398.019	3.66667
396.617	5
395.212	4.33333
393.809	2.33333
392.404	7.33333
391	2
389.595	6.33333
388.189	5.33333
386.783	5
385.377	5.66667
383.97	6.66667
382.563	3
381.157	5
379.747	5.66667
378.34	5.66667
376.932	3.33333
375.522	4
374.112	6.33333
372.704	5.33333
371.294	8.33333
369.883	5.33333
368.472	4.66667
367.061	6.33333
365.649	6.33333
364.238	4.33333
362.826	4.33333
361.411	4
359.999	4
358.585	7.33333
357.172	6
355.757	5.66667
354.342	9.33333
352.928	7
351.513	3.66667
350.097	5
348.68	7.33333
347.264	8.66667
345.845	4.66667
344.429	9
343.012	5.33333
341.948	7

File: W3L150_22_top.txt
692.206	2
690.885	1.66667
689.564	3.66667
688.241	2.66667
686.917	5
685.596	1
684.272	5.33333
682.948	5
681.624	9
680.299	4.66667
678.975	6.66667
677.65	5.33333
676.323	5.66667
674.998	6
673.67	5.33333
672.344	5.33333
671.017	3
669.689	5
668.362	5
667.034	4.33333
665.705	6
664.376	4
663.045	5.33333
661.716	4.33333
660.387	6
659.055	6
657.725	4.66667
656.393	5.66667
655.063	6
653.73	8
652.398	6
651.065	3.33333
649.732	5.33333
648.399	4
647.065	4.66667
645.729	6.33333
644.396	5.33333
643.062	4
641.725	6.33333
640.389	5.33333
639.054	2.33333
637.717	3
636.38	8.33333
635.043	3.66667
633.705	3
632.368	5.33333
631.03	4
629.689	3.33333
628.351	5
627.011	6
625.672	5
624.331	7
622.99	3.33333
621.651	6
620.309	6.33333
618.967	3
617.625	7.66667
616.281	9
614.939	7
613.596	5
612.251	5.33333
610.908	6
609.563	7.33333
608.22	6
606.874	5.33333
605.528	3.66667
604.182	7.66667
602.836	4.33333
601.49	6.33333
600.143	6
598.794	6
597.447	5.66667
596.1	4.33333
594.75	1.66667
593.403	3
592.053	4
590.703	4.33333
589.353	7.66667
588.002	2.66667
586.651	6.66667
585.3	3.66667
583.949	6.33333
582.598	3
581.244	3.66667
579.893	5
578.539	4.66667
577.187	2.33333
575.832	3.66667
574.478	5
573.123	4.33333
571.768	4
570.413	7
569.057	2.33333
567.702	3.66667
566.346	3.66667
564.988	3.66667
563.632	6.66667
562.273	7
560.916	8
559.558	6
558.198	6.66667
556.839	7.33333
555.48	4.33333
554.12	10.6667
552.76	7.66667
551.4	5.33333
550.039	7.66667
548.677	8
547.316	9.33333
545.953	6.66667
544.592	12
543.229	13.6667
541.865	11
540.501	12.3333
539.137	14.3333
537.773	15.6667
536.408	16
535.044	12.3333
533.679	15.3333
532.312	28.3333
530.946	25.3333
529.579	32.3333
528.213	42.6667
526.845	57.6667
525.477	88
524.111	142.667
522.742	286.333
521.373	621
520.002	911.333
518.633	815.667
517.263	659.667
515.894	764
514.522	587
513.152	299
511.779	160.667
510.407	87.6667
509.034	63.6667
507.663	44.6667
506.29	32
504.917	23.3333
503.543	21
502.167	23.3333
500.793	15
499.419	13
498.043	17.6667
496.668	15.6667
495.291	9.33333
493.916	11.3333
492.539	13.3333
491.161	12.3333
489.783	6.33333
488.405	9.66667
487.027	10.6667
485.649	8.66667
484.268	8
482.889	9
481.51	7.66667
480.129	8.33333
478.75	5
477.368	7.33333
475.986	5
474.604	5.66667
473.221	6.33333
471.839	4
470.456	4.66667
469.073	7.33333
467.69	5.33333
466.307	2
464.921	5.33333
463.537	3.66667
462.151	4.66667
460.767	1.33333
459.38	4
457.993	4.33333
456.606	4
455.219	5.33333
453.832	5.33333
452.444	6
451.056	2.66667
449.668	7
448.278	6
446.89	6.66667
445.499	9.33333
444.11	5
442.719	9.33333
441.327	3.66667
439.936	8.33333
438.544	7
437.152	5
435.76	5.66667
434.367	8.66667
432.975	7
431.579	10
430.186	5.66667
428.791	7
427.398	7
426.002	7.33333
424.606	5
423.211	5.66667
421.815	5.66667
420.418	8
419.021	4.66667
417.624	5.66667
416.225	9.66667
414.827	6
413.43	6
412.029	5
410.631	8
409.231	7
407.83	3.66667
406.429	4.66667
405.03	6.66667
403.629	6
402.227	5.66667
400.825	5.33333
399.421	6.33333
398.019	7
396.617	8.33333
395.212	5
393.809	4.66667
392.404	4
391	3.66667
389.595	6.66667
388.189	2.66667
386.783	7
385.377	8.33333
383.97	6.66667
382.563	8.66667
381.157	6.33333
379.747	4.66667
378.34	4.33333
376.932	6.33333
375.522	4
374.112	7.33333
372.704	6
371.294	5
369.883	8.33333
368.472	4.66667
367.061	4.66667
365.649	8.33333
364.238	7.33333
362.826	4.33333
361.411	7
359.999	6.66667
358.585	5
357.172	5.66667
355.757	7
354.342	8.66667
352.928	6.33333
351.513	5
350.097	8.66667
348.68	4.66667
347.264	3
345.845	6.33333
344.429	6.66667
343.012	8
341.948	7.66667

File: W3L150_23_bottom.txt
692.206	4.33333
690.885	5.66667
689.564	7.66667
688.241	8.33333
686.917	8
685.596	9.66667
684.272	10
682.948	5.66667
681.624	6.66667
680.299	9.33333
678.975	7
677.65	8.33333
676.323	8
674.998	11.3333
673.67	12.6667
672.344	9
671.017	7.33333
669.689	7.66667
668.362	9.66667
667.034	5
665.705	10.6667
664.376	11.6667
663.045	9.33333
661.716	7.33333
660.387	10.3333
659.055	7
657.725	8
656.393	11
655.063	7
653.73	9.33333
652.398	11.3333
651.065	8.66667
649.732	10
648.399	6.33333
647.065	7
645.729	8
644.396	7
643.062	7.33333
641.725	8.66667
640.389	12.3333
639.054	12
637.717	9.66667
636.38	10.3333
635.043	8.33333
633.705	7.33333
632.368	8
631.03	10.6667
629.689	8.33333
628.351	10.3333
627.011	14
625.672	7.33333
624.331	10.6667
622.99	11.6667
621.651	10.3333
620.309	9
618.967	7
617.625	10.6667
616.281	8.66667
614.939	12
613.596	10
612.251	10
610.908	7.66667
609.563	9.33333
608.22	7.33333
606.874	10.6667
605.528	8
604.182	11.3333
602.836	7
601.49	7
600.143	8
598.794	11
597.447	7
596.1	11.3333
594.75	12.3333
593.403	11.3333
592.053	7
590.703	9.33333
589.353	9
588.002	8
586.651	6.66667
585.3	8.33333
583.949	7.66667
582.598	10.6667
581.244	10.6667
579.893	11.3333
578.539	8
577.187	5.33333
575.832	8.66667
574.478	6.66667
573.123	7.66667
571.768	12.3333
570.413	7.33333
569.057	9
567.702	11
566.346	9.33333
564.988	7.33333
563.632	8.33333
562.273	7.33333
560.916	10.6667
559.558	9.66667
558.198	10
556.839	11.3333
555.48	10.6667
554.12	11.6667
552.76	8.66667
551.4	11.3333
550.039	10
548.677	12
547.316	11.3333
545.953	8.66667
544.592	12
543.229	14.3333
541.865	14
540.501	16.6667
539.137	16.3333
537.773	18
536.408	19.6667
535.044	21
533.679	22.6667
532.312	28.3333
530.946	28.3333
529.579	33.6667
528.213	40
526.845	57.3333
525.477	79
524.111	125.333
522.742	245.333
521.373	515
520.002	816.333
518.633	710.333
517.263	607
515.894	716.333
514.522	577.667
513.152	327.333
511.779	168.667
510.407	89.3333
509.034	61.3333
507.663	44.3333
506.29	32.3333
504.917	30.6667
503.543	29
502.167	22.6667
500.793	21
499.419	19.6667
498.043	20.3333
496.668	18
495.291	16.6667
493.916	15.3333
492.539	14.6667
491.161	14.6667
489.783	14
488.405	11.3333
487.027	11.3333
485.649	17.6667
484.268	14
482.889	8.33333
481.51	13.3333
480.129	10.3333
478.75	11.3333
477.368	10.3333
475.986	8.66667
474.604	10.3333
473.221	13.3333
471.839	9.66667
470.456	12
469.073	12.3333
467.69	7.66667
466.307	9.66667
464.921	9.33333
463.537	8
462.151	10
460.767	6.66667
459.38	7
457.993	9
456.606	7.33333
455.219	10.6667
453.832	9.33333
452.444	10
451.056	9.66667
449.668	11.3333
448.278	9.66667
446.89	9.33333
445.499	13.3333
444.11	9
442.719	8.33333
441.327	11
439.936	8.33333
438.544	10.3333
437.152	9.33333
435.76	11
434.367	11
432.975	10.3333
431.579	9.66667
430.186	12.6667
428.791	9
427.398	10
426.002	9.33333
424.606	8.33333
423.211	11.6667
421.815	11
420.418	11
419.021	10.6667
417.624	11.3333
416.225	8.66667
414.827	10.3333
413.43	6.66667
412.029	9.33333
410.631	9
409.231	9.66667
407.83	9.33333
406.429	7
405.03	10.6667
403.629	8
402.227	12.3333
400.825	8.33333
399.421	11.3333
398.019	9
396.617	9.33333
395.212	7
393.809	10.6667
392.404	9
391	10.3333
389.595	9
388.189	9.33333
386.783	10.6667
385.377	7.33333
383.97	8.33333
382.563	8.66667
381.157	9.66667
379.747	10
378.34	12
376.932	9
375.522	8.66667
374.112	11
372.704	10.6667
371.294	12.3333
369.883	11
368.472	10
367.061	6.33333
365.649	8.33333
364.238	10
362.826	12.3333
361.411	12.6667
359.999	8.66667
358.585	9.33333
357.172	7.66667
355.757	13.6667
354.342	10
352.928	9.33333
351.513	9.33333
350.097	8.33333
348.68	7
347.264	10.3333
345.845	10.3333
344.429	6.66667
343.012	12
341.948	9.33333

File: W3L150_23_top.txt
692.206	6
690.885	4
689.564	2.66667
688.241	2.33333
686.917	2
685.596	3
684.272	4.33333
682.948	6.33333
681.624	6.66667
680.299	5
678.975	6
677.65	5
676.323	5
674.998	9
673.67	6.33333
672.344	4.66667
671.017	6.33333
669.689	5
668.362	8.66667
667.034	8
665.705	5
664.376	5
663.045	2
661.716	4
660.387	4.33333
659.055	6
657.725	7.33333
656.393	6.66667
655.063	7.33333
653.73	8
652.398	6.66667
651.065	7
649.732	4.66667
648.399	7.33333
647.065	4.66667
645.729	8.33333
644.396	7.66667
643.062	6.66667
641.725	6.66667
640.389	4
639.054	5.33333
637.717	9
636.38	5
635.043	3.33333
633.705	7
632.368	2.33333
631.03	4.33333
629.689	7
628.351	8
627.011	6.33333
625.672	5.66667
624.331	7.33333
622.99	6.66667
621.651	5
620.309	7
618.967	2.66667
617.625	8
616.281	8.33333
614.939	9.33333
613.596	4.66667
612.251	7.66667
610.908	6.66667
609.563	5.33333
608.22	8
606.874	6.66667
605.528	6.66667
604.182	6
602.836	5.33333
601.49	6
600.143	3.66667
598.794	6
597.447	8
596.1	5.33333
594.75	8
593.403	4
592.053	5.33333
590.703	6.66667
589.353	7.33333
588.002	6.33333
586.651	5
585.3	4
583.949	6
582.598	5.66667
581.244	6.66667
579.893	8
578.539	4.66667
577.187	3.66667
575.832	4.33333
574.478	7.33333
573.123	6.33333
571.768	4
570.413	5.66667
569.057	5.33333
567.702	6.33333
566.346	6.66667
564.988	7.66667
563.632	6
562.273	9.66667
560.916	4
559.558	8
558.198	6.66667
556.839	9.33333
555.48	11.3333
554.12	5.66667
552.76	8
551.4	8.33333
550.039	8
548.677	5.66667
547.316	11
545.953	9.66667
544.592	10.3333
543.229	13.3333
541.865	10
540.501	16
539.137	16.6667
537.773	14.6667
536.408	14.6667
535.044	17.6667
533.679	19
532.312	23.6667
530.946	36
529.579	37.6667
528.213	43.6667
526.845	59.6667
525.477	85.3333
524.111	132
522.742	287
521.373	635
520.002	906.667
518.633	797
517.263	640.333
515.894	767.667
514.522	639.333
513.152	363
511.779	178
510.407	99.3333
509.034	59.3333
507.663	48.3333
506.29	34
504.917	32.3333
503.543	25.3333
502.167	23
500.793	15.3333
499.419	20.3333
498.043	17
496.668	13
495.291	12
493.916	11.6667
492.539	9.66667
491.161	12.3333
489.783	9
488.405	11.3333
487.027	13
485.649	13.3333
484.268	11
482.889	6.33333
481.51	8
480.129	11.6667
478.75	8.33333
477.368	8.33333
475.986	9.33333
474.604	8.33333
473.221	5.66667
471.839	8.33333
470.456	9.33333
469.073	9.33333
467.69	7.33333
466.307	8
464.921	7
463.537	9.66667
462.151	5.33333
460.767	3.66667
459.38	5.66667
457.993	5
456.606	6
455.219	7
453.832	5.66667
452.444	5.66667
451.056	3.66667
449.668	7.66667
448.278	6.66667
446.89	9
445.499	8.66667
444.11	7
442.719	6.33333
441.327	6
439.936	6.66667
438.544	4
437.152	6.33333
435.76	7
434.367	6.33333
432.975	8.33333
431.579	7.33333
430.186	7.33333
428.791	6
427.398	8.33333
426.002	7.66667
424.606	8.66667
423.211	9
421.815	7
420.418	5.33333
419.021	7.33333
417.624	11
416.225	6.66667
414.827	5
413.43	8.33333
412.029	4.33333
410.631	5
409.231	9
407.83	9.33333
406.429	6.66667
405.03	6.33333
403.629	4
402.227	9.66667
400.825	6.33333
399.421	6.33333
398.019	6
396.617	5.66667
395.212	8.33333
393.809	8
392.404	8.33333
391	6
389.595	4.66667
388.189	5.33333
386.783	6
385.377	8.66667
383.97	7
382.563	3
381.157	3.66667
379.747	5.33333
378.34	6.66667
376.932	3.33333
375.522	5.66667
374.112	4.33333
372.704	3.33333
371.294	7.66667
369.883	6
368.472	8.66667
367.061	7.33333
365.649	10.3333
364.238	6
362.826	9.66667
361.411	7.33333
359.999	7.33333
358.585	5.33333
357.172	11.3333
355.757	8.66667
354.342	6.66667
352.928	6.66667
351.513	5.66667
350.097	7.33333
348.68	7.33333
347.264	9
345.845	6.66667
344.429	12.3333
343.012	6.33333
341.948	5.33333

File: W3L150_24_bottom.txt
692.206	5
690.885	6.33333
689.564	4.33333
688.241	8.33333
686.917	8
685.596	7.33333
684.272	6.66667
682.948	6.66667
681.624	8.33333
680.299	7
678.975	7.33333
677.65	7.66667
676.323	10.3333
674.998	9.66667
673.67	5.66667
672.344	7.33333
671.017	7
669.689	10.3333
668.362	7
667.034	8.33333
665.705	12
664.376	7.66667
663.045	9.33333
661.716	10.6667
660.387	9.33333
659.055	9
657.725	9
656.393	8
655.063	6.66667
653.73	7.66667
652.398	7
651.065	9.66667
649.732	6.66667
648.399	10.6667
647.065	7.33333
645.729	5.66667
644.396	9
643.062	8
641.725	6
640.389	4
639.054	6.66667
637.717	8.66667
636.38	6.66667
635.043	9.66667
633.705	5
632.368	8.66667
631.03	6.66667
629.689	6.33333
628.351	11.3333
627.011	7.33333
625.672	10
624.331	11
622.99	9.33333
621.651	8
620.309	10.3333
618.967	11.3333
617.625	8.66667
616.281	9.33333
614.939	10
613.596	10
612.251	11
610.908	10.6667
609.563	10
608.22	8
606.874	8
605.528	8
604.182	9.33333
602.836	8.66667
601.49	8
600.143	9.33333
598.794	8.33333
597.447	11.3333
596.1	7
594.75	5
593.403	7.66667
592.053	9
590.703	8
589.353	8.66667
588.002	6.66667
586.651	6.66667
585.3	9.33333
583.949	7
582.598	9.66667
581.244	10.6667
579.893	4
578.539	7.33333
577.187	8
575.832	7.33333
574.478	8.33333
573.123	6.33333
571.768	6.33333
570.413	7
569.057	9.33333
567.702	8.33333
566.346	9.66667
564.988	7.33333
563.632	8.66667
562.273	12
560.916	8.66667
559.558	7.66667
558.198	16
556.839	10.3333
555.48	10.3333
554.12	10
552.76	10.6667
551.4	15.3333
550.039	11.6667
548.677	12.6667
547.316	15.6667
545.953	14.3333
544.592	15.3333
543.229	18.6667
541.865	18.6667
540.501	22
539.137	22.3333
537.773	23.3333
536.408	27.3333
535.044	25
533.679	37.3333
532.312	33
530.946	40.6667
529.579	62.3333
528.213	79.3333
526.845	104.667
525.477	157.667
524.111	276.333
522.742	573
521.373	1413.33
520.002	1943.67
518.633	1028.67
517.263	444
515.894	226.333
514.522	149.667
513.152	92.3333
511.779	73.3333
510.407	51.6667
509.034	40.6667
507.663	39
506.29	27.6667
504.917	23.6667
503.543	21
502.167	26
500.793	20.3333
499.419	19.3333
498.043	17.3333
496.668	20
495.291	16
493.916	12.6667
492.539	12
491.161	14
489.783	13.6667
488.405	14.6667
487.027	7.33333
485.649	13.6667
484.268	8.33333
482.889	11.3333
481.51	11
480.129	10
478.75	11
477.368	7.33333
475.986	12
474.604	7.66667
473.221	7.66667
471.839	8.66667
470.456	11.3333
469.073	10
467.69	7.33333
466.307	11
464.921	4.66667
463.537	6.33333
462.151	5.33333
460.767	7
459.38	11
457.993	8
456.606	8.66667
455.219	6.33333
453.832	6
452.444	7
451.056	5.66667
449.668	6.33333
448.278	8.66667
446.89	9
445.499	9.33333
444.11	7.33333
442.719	10
441.327	9
439.936	9
438.544	10
437.152	9
435.76	12.3333
434.367	9.33333
432.975	12.6667
431.579	11
430.186	10.6667
428.791	9
427.398	9.33333
426.002	12
424.606	10.6667
423.211	12.6667
421.815	10.3333
420.418	11.3333
419.021	9.66667
417.624	7
416.225	10
414.827	12
413.43	6.33333
412.029	8
410.631	11
409.231	9
407.83	7.66667
406.429	9
405.03	10.6667
403.629	8.66667
402.227	5.33333
400.825	8.66667
399.421	6
398.019	8.66667
396.617	8.66667
395.212	12
393.809	10.6667
392.404	9.66667
391	9
389.595	12
388.189	10.3333
386.783	10.6667
385.377	9
383.97	8
382.563	11.3333
381.157	13
379.747	8.66667
378.34	10
376.932	10
375.522	10.6667
374.112	8.66667
372.704	9.66667
371.294	9
369.883	9.33333
368.472	9.66667
367.061	9.33333
365.649	8
364.238	11
362.826	12
361.411	12.6667
359.999	9.66667
358.585	10.3333
357.172	9.33333
355.757	6.66667
354.342	12.3333
352.928	9.66667
351.513	6.33333
350.097	10.3333
348.68	11.3333
347.264	10.6667
345.845	9.66667
344.429	12.3333
343.012	8.66667
341.948	11.6667

File: W3L150_24_top.txt
692.206	3
690.885	4.33333
689.564	3.33333
688.241	4.66667
686.917	2.66667
685.596	5.33333
684.272	5
682.948	4.33333
681.624	3
680.299	4.33333
678.975	3.33333
677.65	4.33333
676.323	4.66667
674.998	5.66667
673.67	5
672.344	4
671.017	6.33333
669.689	5
668.362	5.66667
667.034	2
665.705	7
664.376	5.33333
663.045	5.33333
661.716	6
660.387	5
659.055	5.33333
657.725	6.66667
656.393	4.66667
655.063	5.33333
653.73	4.66667
652.398	4
651.065	3
649.732	4.66667
648.399	4
647.065	3.66667
645.729	4.66667
644.396	5
643.062	7.33333
641.725	6.66667
640.389	4.33333
639.054	2
637.717	4.66667
636.38	5.66667
635.043	4.66667
633.705	5.33333
632.368	6.33333
631.03	1.66667
629.689	4
628.351	5.33333
627.011	7.33333
625.672	5.33333
624.331	5.33333
622.99	2.33333
621.651	4.33333
620.309	5.66667
618.967	6.66667
617.625	4
616.281	6.33333
614.939	7.33333
613.596	6.66667
612.251	8
610.908	5.66667
609.563	4.33333
608.22	9
606.874	8
605.528	3
604.182	4.33333
602.836	4
601.49	5
600.143	3.33333
598.794	4.33333
597.447	1.66667
596.1	4.33333
594.75	2.66667
593.403	6.33333
592.053	3.33333
590.703	3.33333
589.353	4
588.002	4.66667
586.651	6.66667
585.3	4
583.949	3.33333
582.598	3.66667
581.244	3.33333
579.893	6.33333
578.539	5
577.187	2.33333
575.832	3.33333
574.478	3.66667
573.123	3.66667
571.768	4.66667
570.413	4.66667
569.057	5.66667
567.702	3.33333
566.346	3.33333
564.988	5
563.632	5.66667
562.273	5.66667
560.916	5.33333
559.558	7.33333
558.198	5
556.839	4.66667
555.48	7
554.12	5.66667
552.76	9.33333
551.4	8
550.039	7.33333
548.677	12
547.316	8.66667
545.953	9.66667
544.592	6.33333
543.229	9.33333
541.865	9.33333
540.501	15
539.137	13
537.773	15.3333
536.408	16.6667
535.044	20
533.679	23.3333
532.312	27.3333
530.946	34.6667
529.579	37.6667
528.213	42
526.845	59
525.477	96.6667
524.111	155
522.742	287.667
521.373	665.667
520.002	931.667
518.633	803.333
517.263	451.333
515.894	403.667
514.522	590.333
513.152	578.333
511.779	500.667
510.407	301.667
509.034	151.667
507.663	81.3333
506.29	49.6667
504.917	36
503.543	31.6667
502.167	25.6667
500.793	19
499.419	18
498.043	17.6667
496.668	16.3333
495.291	12.6667
493.916	12.3333
492.539	8.66667
491.161	11.6667
489.783	12
488.405	7.66667
487.027	10.3333
485.649	7
484.268	7
482.889	7.66667
481.51	7
480.129	6.33333
478.75	7.66667
477.368	6.33333
475.986	4.66667
474.604	5
473.221	5.66667
471.839	5.66667
470.456	6
469.073	6.66667
467.69	7
466.307	3
464.921	4.66667
463.537	4.33333
462.151	5.33333
460.767	4.66667
459.38	2
457.993	2.33333
456.606	4.66667
455.219	5
453.832	5.33333
452.444	6.66667
451.056	6.33333
449.668	6.33333
448.278	8.33333
446.89	5.33333
445.499	3.66667
444.11	6.33333
442.719	5
441.327	3.33333
439.936	7.66667
438.544	5.33333
437.152	7
435.76	8
434.367	4
432.975	7.33333
431.579	6
430.186	4.66667
428.791	5.33333
427.398	6
426.002	7
424.606	4.66667
423.211	5.66667
421.815	4.66667
420.418	5
419.021	8.66667
417.624	5.66667
416.225	5.66667
414.827	3.33333
413.43	6
412.029	5.66667
410.631	7.66667
409.231	7.33333
407.83	5
406.429	4.66667
405.03	4.66667
403.629	5.33333
402.227	6.33333
400.825	7
399.421	5.33333
398.019	1.33333
396.617	4.66667
395.212	5.33333
393.809	3.66667
392.404	6
391	7.33333
389.595	6.33333
388.189	5.33333
386.783	5
385.377	7
383.97	5.33333
382.563	7.33333
381.157	8
379.747	6.33333
378.34	4.66667
376.932	5
375.522	1.33333
374.112	6.66667
372.704	6.33333
371.294	6.33333
369.883	7.33333
368.472	4.33333
367.061	7
365.649	7.66667
364.238	6
362.826	5.33333
361.411	6.33333
359.999	8.33333
358.585	7
357.172	7
355.757	11
354.342	7
352.928	9.66667
351.513	8.66667
350.097	7.66667
348.68	5.66667
347.264	6.33333
345.845	6.66667
344.429	6
343.012	6.66667
341.948	7.66667

File: W3L150_25_top.txt
692.206	30.3333
690.885	23.3333
689.564	28
688.241	27.3333
686.917	21.6667
685.596	28.6667
684.272	24
682.948	26.3333
681.624	28
680.299	28.6667
678.975	26.3333
677.65	24.6667
676.323	29.3333
674.998	26.3333
673.67	28.6667
672.344	30
671.017	31.6667
669.689	32
668.362	27.6667
667.034	34.6667
665.705	30.6667
664.376	30.6667
663.045	22
661.716	30
660.387	25.6667
659.055	30.3333
657.725	33
656.393	29.6667
655.063	30.3333
653.73	28
652.398	28.3333
651.065	25.3333
649.732	30.6667
648.399	26.3333
647.065	30.6667
645.729	28
644.396	28.3333
643.062	26
641.725	28.6667
640.389	30.6667
639.054	25.3333
637.717	29.6667
636.38	28.3333
635.043	24.3333
633.705	31.6667
632.368	28
631.03	29
629.689	29
628.351	26.3333
627.011	29
625.672	30.3333
624.331	26
622.99	27
621.651	28
620.309	29.6667
618.967	32.6667
617.625	30
616.281	31.6667
614.939	31
613.596	34.6667
612.251	31
610.908	26
609.563	26
608.22	28.3333
606.874	35.3333
605.528	32
604.182	27.3333
602.836	29
601.49	27.3333
600.143	30.6667
598.794	26
597.447	28
596.1	28.3333
594.75	27.6667
593.403	24.3333
592.053	31.6667
590.703	25.6667
589.353	24.6667
588.002	27
586.651	25
585.3	25
583.949	27.3333
582.598	29.3333
581.244	27
579.893	32.6667
578.539	30.6667
577.187	28.6667
575.832	24.6667
574.478	28
573.123	30.3333
571.768	28.3333
570.413	26.3333
569.057	25.6667
567.702	30
566.346	28
564.988	27.3333
563.632	25
562.273	30.3333
560.916	28.6667
559.558	25
558.198	29.6667
556.839	26.6667
555.48	33.3333
554.12	31
552.76	32.3333
551.4	32.3333
550.039	29
548.677	31.6667
547.316	32
545.953	33
544.592	31.3333
543.229	35.3333
541.865	34.3333
540.501	43.6667
539.137	36
537.773	34.6667
536.408	41.3333
535.044	36
533.679	48.6667
532.312	45
530.946	63.3333
529.579	59
528.213	76.6667
526.845	90.6667
525.477	137.667
524.111	197.333
522.742	386.667
521.373	848.333
520.002	1150.67
518.633	857.333
517.263	556
515.894	638.667
514.522	611
513.152	432
511.779	238
510.407	139.333
509.034	87.6667
507.663	69.3333
506.29	59.3333
504.917	47.6667
503.543	52
502.167	50
500.793	46
499.419	35.3333
498.043	39
496.668	38.3333
495.291	34.3333
493.916	33.6667
492.539	35.6667
491.161	36
489.783	32
488.405	34.6667
487.027	31.3333
485.649	25.3333
484.268	31.3333
482.889	31.6667
481.51	29.6667
480.129	33
478.75	34.6667
477.368	25.3333
475.986	25.3333
474.604	29
473.221	34
471.839	28.3333
470.456	27.6667
469.073	28.6667
467.69	23.6667
466.307	23
464.921	24.3333
463.537	24.6667
462.151	27.3333
460.767	25.6667
459.38	25.6667
457.993	24.3333
456.606	27.3333
455.219	25.6667
453.832	22.6667
452.444	28.6667
451.056	24
449.668	27.6667
448.278	28
446.89	23.6667
445.499	26.6667
444.11	29.3333
442.719	30
441.327	21.6667
439.936	25.3333
438.544	26.6667
437.152	28.3333
435.76	28.6667
434.367	30.6667
432.975	33.3333
431.579	27.6667
430.186	22
428.791	28.6667
427.398	27.3333
426.002	24.3333
424.606	29
423.211	27
421.815	31
420.418	27.6667
419.021	28.6667
417.624	27
416.225	30
414.827	30.3333
413.43	26
412.029	31.3333
410.631	29.3333
409.231	27
407.83	27.3333
406.429	30
405.03	30.6667
403.629	31.6667
402.227	23.3333
400.825	29
399.421	29.3333
398.019	31.6667
396.617	29.3333
395.212	26.6667
393.809	30
392.404	29
391	24.3333
389.595	27.3333
388.189	26
386.783	32.3333
385.377	28
383.97	27
382.563	31
381.157	28.3333
379.747	23.6667
378.34	30
376.932	25.6667
375.522	30.3333
374.112	30
372.704	30.6667
371.294	27
369.883	25.6667
368.472	26
367.061	25.6667
365.649	26.6667
364.238	31.6667
362.826	26.3333
361.411	28.6667
359.999	31.3333
358.585	29.6667
357.172	23.3333
355.757	25
354.342	26
352.928	25
351.513	27.6667
350.097	25.3333
348.68	28
347.264	28
345.845	26.3333
344.429	26.3333
343.012	27
341.948	26.6667