Folder: pypi-mirror-373/packages/dopes/dopes-2025.1.0.tar.gz/dopes-2025.1.0/examples/data_analysis/raman_silicon/data/514nm_1%_15s (part 3)

File: W3L150_8_bottom.txt
692.206	-1
690.885	5
689.564	0.333333
688.241	0.666667
686.917	3.33333
685.596	0.666667
684.272	1.66667
682.948	1.66667
681.624	-0.666667
680.299	1.66667
678.975	0.666667
677.65	-1
676.323	4.33333
674.998	0.333333
673.67	1.33333
672.344	2.66667
671.017	0
669.689	3.66667
668.362	1.66667
667.034	4.33333
665.705	2
664.376	3
663.045	1.66667
661.716	2
660.387	2.66667
659.055	2.33333
657.725	1
656.393	2.33333
655.063	1.33333
653.73	2.33333
652.398	3
651.065	3.66667
649.732	2.33333
648.399	1.33333
647.065	4.33333
645.729	1
644.396	0.333333
643.062	1.66667
641.725	1.33333
640.389	0
639.054	0
637.717	3.66667
636.38	2
635.043	2
633.705	0
632.368	2
631.03	0
629.689	2.33333
628.351	2.66667
627.011	1.66667
625.672	4.33333
624.331	2
622.99	3.33333
621.651	3.33333
620.309	3
618.967	5.33333
617.625	2.33333
616.281	5.33333
614.939	0.666667
613.596	3
612.251	1.33333
610.908	2
609.563	-0.333333
608.22	2.66667
606.874	2.66667
605.528	2.66667
604.182	2.33333
602.836	3
601.49	1.33333
600.143	2.66667
598.794	1
597.447	1
596.1	1
594.75	-0.666667
593.403	-1.66667
592.053	1.33333
590.703	2.33333
589.353	1.33333
588.002	0.666667
586.651	0.666667
585.3	2.66667
583.949	0.333333
582.598	2.33333
581.244	1.33333
579.893	0.666667
578.539	1
577.187	0.333333
575.832	1.66667
574.478	1
573.123	-1
571.768	2
570.413	1
569.057	4.66667
567.702	1.33333
566.346	2.33333
564.988	4.66667
563.632	4.33333
562.273	3
560.916	1.66667
559.558	4
558.198	3.66667
556.839	1.66667
555.48	5
554.12	1.33333
552.76	5.66667
551.4	3.66667
550.039	2.66667
548.677	6.66667
547.316	7
545.953	8.66667
544.592	11
543.229	12.3333
541.865	10.3333
540.501	11.6667
539.137	12
537.773	17
536.408	19.6667
535.044	21.6667
533.679	24.6667
532.312	31.3333
530.946	39
529.579	43.3333
528.213	60.3333
526.845	90.3333
525.477	139
524.111	241.333
522.742	483
521.373	1133.33
520.002	1703.67
518.633	1196.67
517.263	522.667
515.894	252.667
514.522	143.333
513.152	97.6667
511.779	57.6667
510.407	43.3333
509.034	35
507.663	27.3333
506.29	21.6667
504.917	16.6667
503.543	17.3333
502.167	17.3333
500.793	12.3333
499.419	12.6667
498.043	11.3333
496.668	7
495.291	7
493.916	7.66667
492.539	7.33333
491.161	10.3333
489.783	8.33333
488.405	2.66667
487.027	5
485.649	5
484.268	5.66667
482.889	5.33333
481.51	5.33333
480.129	3.33333
478.75	5.33333
477.368	2
475.986	4.66667
474.604	3.33333
473.221	4.33333
471.839	1.33333
470.456	3
469.073	0.666667
467.69	2.33333
466.307	2.66667
464.921	2.66667
463.537	2
462.151	0
460.767	1.33333
459.38	0.333333
457.993	1.33333
456.606	3.66667
455.219	0
453.832	1
452.444	2.66667
451.056	0.666667
449.668	1.66667
448.278	2.66667
446.89	4
445.499	3
444.11	1.33333
442.719	3.33333
441.327	2.33333
439.936	2.66667
438.544	6
437.152	8.66667
435.76	4.66667
434.367	6
432.975	4
431.579	4
430.186	3
428.791	3
427.398	4
426.002	1
424.606	0.666667
423.211	3
421.815	4
420.418	2
419.021	2.66667
417.624	3.66667
416.225	2.66667
414.827	2.33333
413.43	2.33333
412.029	3
410.631	-1.33333
409.231	1.33333
407.83	1
406.429	4.33333
405.03	1.33333
403.629	2
402.227	1.66667
400.825	0.666667
399.421	2.66667
398.019	4
396.617	2.33333
395.212	5.33333
393.809	3.66667
392.404	-2.66667
391	4.33333
389.595	2.33333
388.189	3.66667
386.783	4.66667
385.377	4
383.97	3
382.563	2.66667
381.157	2
379.747	4.33333
378.34	6
376.932	4
375.522	7.33333
374.112	1.66667
372.704	4.66667
371.294	4
369.883	1.33333
368.472	2
367.061	3
365.649	3
364.238	3.66667
362.826	1.33333
361.411	5.33333
359.999	8
358.585	2.66667
357.172	-1.66667
355.757	5
354.342	3.66667
352.928	4.66667
351.513	2.33333
350.097	4.33333
348.68	2.33333
347.264	5.33333
345.845	6.33333
344.429	3.33333
343.012	3
341.948	3

File: W3L150_8_top.txt
692.206	2.33333
690.885	1.33333
689.564	3.33333
688.241	3.66667
686.917	4.33333
685.596	3.33333
684.272	1
682.948	2.33333
681.624	2.33333
680.299	2.66667
678.975	3
677.65	4
676.323	4
674.998	2
673.67	5.66667
672.344	6
671.017	0
669.689	4.66667
668.362	1.66667
667.034	3.33333
665.705	6
664.376	3.33333
663.045	3.33333
661.716	5
660.387	7.66667
659.055	3.33333
657.725	0.666667
656.393	2
655.063	4.66667
653.73	4
652.398	3.66667
651.065	4.33333
649.732	2.66667
648.399	3
647.065	4.66667
645.729	4.33333
644.396	3.66667
643.062	4
641.725	1.66667
640.389	4.33333
639.054	2.66667
637.717	3
636.38	2.66667
635.043	2.33333
633.705	2
632.368	3.33333
631.03	2
629.689	4.33333
628.351	6.33333
627.011	3.33333
625.672	5
624.331	6.33333
622.99	4.66667
621.651	0.666667
620.309	5.66667
618.967	5
617.625	8.33333
616.281	8.33333
614.939	5.33333
613.596	2.66667
612.251	6.33333
610.908	2.66667
609.563	3
608.22	4.33333
606.874	5
605.528	4.33333
604.182	1
602.836	3.66667
601.49	4
600.143	4.33333
598.794	3.33333
597.447	2
596.1	4.33333
594.75	5.33333
593.403	2
592.053	4
590.703	3.33333
589.353	4.33333
588.002	4
586.651	4
585.3	3.66667
583.949	2
582.598	3.66667
581.244	2.66667
579.893	1.66667
578.539	5.33333
577.187	4.33333
575.832	2
574.478	5
573.123	4
571.768	3
570.413	1.66667
569.057	6.33333
567.702	6.33333
566.346	4
564.988	4
563.632	5.33333
562.273	5
560.916	6
559.558	6
558.198	8.33333
556.839	6.66667
555.48	3.66667
554.12	6
552.76	6.33333
551.4	10.3333
550.039	6.66667
548.677	6.66667
547.316	12.3333
545.953	8.33333
544.592	12.3333
543.229	13
541.865	12.3333
540.501	17.3333
539.137	17.6667
537.773	18.3333
536.408	18.6667
535.044	20
533.679	24.3333
532.312	33.3333
530.946	33.3333
529.579	48.6667
528.213	54.3333
526.845	87
525.477	132.333
524.111	224.333
522.742	469.667
521.373	1080.67
520.002	1725
518.633	1253
517.263	566.333
515.894	259.667
514.522	146
513.152	98.6667
511.779	67
510.407	45.6667
509.034	41.6667
507.663	28.3333
506.29	26
504.917	19.6667
503.543	20
502.167	17.3333
500.793	12.3333
499.419	11
498.043	15.6667
496.668	8
495.291	10.6667
493.916	10.6667
492.539	8.66667
491.161	10
489.783	7
488.405	7
487.027	6.66667
485.649	5
484.268	5
482.889	5.66667
481.51	9.33333
480.129	7
478.75	7
477.368	7.33333
475.986	5.66667
474.604	6.33333
473.221	3.66667
471.839	2.66667
470.456	3.66667
469.073	2
467.69	5.66667
466.307	5
464.921	4.33333
463.537	6
462.151	4
460.767	1.66667
459.38	5
457.993	3.33333
456.606	3
455.219	2
453.832	4.33333
452.444	5
451.056	3.33333
449.668	4.33333
448.278	1.66667
446.89	3.66667
445.499	7.66667
444.11	4.33333
442.719	6.66667
441.327	4.33333
439.936	3.33333
438.544	7.33333
437.152	1.33333
435.76	5.33333
434.367	3
432.975	3
431.579	8
430.186	0.666667
428.791	6
427.398	5
426.002	4.33333
424.606	6
423.211	5.33333
421.815	4
420.418	3.66667
419.021	3
417.624	4.66667
416.225	2
414.827	5.33333
413.43	2.33333
412.029	3.66667
410.631	5.33333
409.231	6
407.83	5.66667
406.429	6
405.03	4
403.629	4.33333
402.227	8.33333
400.825	5
399.421	2
398.019	8.66667
396.617	4.66667
395.212	5.66667
393.809	3.66667
392.404	8.33333
391	3.66667
389.595	7.33333
388.189	4.33333
386.783	4.66667
385.377	5.66667
383.97	4.66667
382.563	7
381.157	3
379.747	4.66667
378.34	4.33333
376.932	2
375.522	6
374.112	4.66667
372.704	6
371.294	2.66667
369.883	6.66667
368.472	3.33333
367.061	4
365.649	4
364.238	4.66667
362.826	6
361.411	4.66667
359.999	5.66667
358.585	5
357.172	5
355.757	3
354.342	6.66667
352.928	7.33333
351.513	5.33333
350.097	4.33333
348.68	5
347.264	2
345.845	4
344.429	9
343.012	8.33333
341.948	7.33333

File: W3L150_9_bottom.txt
692.206	0.666667
690.885	0
689.564	0
688.241	-0.666667
686.917	-1
685.596	0.666667
684.272	1
682.948	-1.66667
681.624	-0.333333
680.299	0.333333
678.975	1.33333
677.65	-0.333333
676.323	1
674.998	2.33333
673.67	1
672.344	-0.333333
671.017	0.666667
669.689	0
668.362	0.333333
667.034	1
665.705	1
664.376	0.333333
663.045	1.33333
661.716	0.666667
660.387	4
659.055	2
657.725	2
656.393	0.333333
655.063	0.666667
653.73	2.33333
652.398	1.66667
651.065	-0.666667
649.732	1
648.399	-0.666667
647.065	0.666667
645.729	-0.333333
644.396	3
643.062	2
641.725	2
640.389	-0.666667
639.054	1.66667
637.717	4.33333
636.38	2
635.043	1.33333
633.705	-2.33333
632.368	0.333333
631.03	3.33333
629.689	1
628.351	4.33333
627.011	2.33333
625.672	2
624.331	4.33333
622.99	3.33333
621.651	2
620.309	4.33333
618.967	0
617.625	2.66667
616.281	4.66667
614.939	3
613.596	3.33333
612.251	2
610.908	2.33333
609.563	-0.666667
608.22	2
606.874	4
605.528	3.33333
604.182	3
602.836	0
601.49	-1.66667
600.143	-0.333333
598.794	0.666667
597.447	1.33333
596.1	0.666667
594.75	-0.333333
593.403	0.333333
592.053	1.66667
590.703	-1
589.353	1.66667
588.002	0.333333
586.651	1.66667
585.3	0
583.949	2
582.598	1
581.244	-1.33333
579.893	3.33333
578.539	0
577.187	1.66667
575.832	1.66667
574.478	1.33333
573.123	-0.666667
571.768	2.66667
570.413	1
569.057	4.66667
567.702	1.66667
566.346	3
564.988	3
563.632	3.33333
562.273	4.66667
560.916	3.66667
559.558	3.33333
558.198	4.33333
556.839	0.666667
555.48	4.66667
554.12	1.33333
552.76	2.33333
551.4	4.33333
550.039	5
548.677	5.33333
547.316	8.33333
545.953	9
544.592	9
543.229	10
541.865	10
540.501	14
539.137	12.3333
537.773	15.6667
536.408	16.6667
535.044	18.3333
533.679	22
532.312	27.3333
530.946	30.6667
529.579	40.3333
528.213	58.3333
526.845	77
525.477	114.667
524.111	212.333
522.742	417.667
521.373	963.333
520.002	1595.67
518.633	1386.67
517.263	658
515.894	298.333
514.522	154
513.152	96
511.779	70.3333
510.407	47.3333
509.034	39.3333
507.663	27.3333
506.29	24.3333
504.917	15.6667
503.543	14
502.167	21
500.793	9.33333
499.419	12.3333
498.043	8.66667
496.668	6.33333
495.291	10
493.916	10.3333
492.539	6.33333
491.161	7
489.783	3.33333
488.405	5
487.027	5.66667
485.649	7
484.268	6
482.889	4.66667
481.51	4.66667
480.129	3
478.75	3.33333
477.368	4.33333
475.986	4
474.604	2.33333
473.221	3.33333
471.839	6.33333
470.456	1
469.073	5
467.69	5.33333
466.307	4
464.921	0.666667
463.537	0.333333
462.151	1.66667
460.767	2.66667
459.38	2.66667
457.993	3
456.606	1
455.219	2
453.832	2
452.444	0.666667
451.056	3
449.668	3
448.278	2.33333
446.89	-1
445.499	2.66667
444.11	1.66667
442.719	2
441.327	2
439.936	-0.333333
438.544	2.33333
437.152	2
435.76	0
434.367	1.66667
432.975	3.66667
431.579	4.33333
430.186	1.66667
428.791	1.66667
427.398	4
426.002	0.666667
424.606	2.33333
423.211	2.33333
421.815	4.33333
420.418	3.66667
419.021	2.33333
417.624	2.33333
416.225	4
414.827	4
413.43	2.33333
412.029	4
410.631	5
409.231	4
407.83	3.33333
406.429	2.66667
405.03	-0.333333
403.629	3.33333
402.227	0.666667
400.825	1.33333
399.421	3.33333
398.019	3
396.617	2.33333
395.212	-0.333333
393.809	1.66667
392.404	0.666667
391	5.33333
389.595	2.33333
388.189	3
386.783	1.33333
385.377	2.33333
383.97	0.666667
382.563	4.66667
381.157	0.666667
379.747	3.33333
378.34	4.33333
376.932	2
375.522	3.33333
374.112	3.33333
372.704	3.33333
371.294	0
369.883	2.33333
368.472	0.666667
367.061	3.66667
365.649	1.33333
364.238	2.66667
362.826	4
361.411	1.66667
359.999	5.33333
358.585	6.33333
357.172	1
355.757	2
354.342	1.33333
352.928	2
351.513	3
350.097	6.33333
348.68	4.66667
347.264	3
345.845	2.66667
344.429	5.33333
343.012	4
341.948	3.33333

File: W3L150_9_top.txt
692.206	6.66667
690.885	5
689.564	4.33333
688.241	10
686.917	7
685.596	8.66667
684.272	8.66667
682.948	10.3333
681.624	8
680.299	7.66667
678.975	6.66667
677.65	7
676.323	8.33333
674.998	10
673.67	7
672.344	8.33333
671.017	7.33333
669.689	5.33333
668.362	9.66667
667.034	6.33333
665.705	9.33333
664.376	10.6667
663.045	6
661.716	7.33333
660.387	10.3333
659.055	9.33333
657.725	8
656.393	9.33333
655.063	4
653.73	7
652.398	8
651.065	8.66667
649.732	6.66667
648.399	9.66667
647.065	13
645.729	8.66667
644.396	8.66667
643.062	6
641.725	9.33333
640.389	7.66667
639.054	6.66667
637.717	11
636.38	13.3333
635.043	10.3333
633.705	10.3333
632.368	4.33333
631.03	9.33333
629.689	12.3333
628.351	9.66667
627.011	10.6667
625.672	10.3333
624.331	6.33333
622.99	8.66667
621.651	13
620.309	10
618.967	8.66667
617.625	9.66667
616.281	10.6667
614.939	11
613.596	9
612.251	7.33333
610.908	9.33333
609.563	8.66667
608.22	5.66667
606.874	9.33333
605.528	7
604.182	8.33333
602.836	7
601.49	5.33333
600.143	4.33333
598.794	10
597.447	8.33333
596.1	7.66667
594.75	5.33333
593.403	10
592.053	5.66667
590.703	6.33333
589.353	6
588.002	5.66667
586.651	6.66667
585.3	9
583.949	7
582.598	10
581.244	8.33333
579.893	5.33333
578.539	10.6667
577.187	9.33333
575.832	10
574.478	12
573.123	8.66667
571.768	6.33333
570.413	7
569.057	10.3333
567.702	10
566.346	8.66667
564.988	8
563.632	8.66667
562.273	10
560.916	10.3333
559.558	11.3333
558.198	10.3333
556.839	14
555.48	12.3333
554.12	14.3333
552.76	11.6667
551.4	11
550.039	12.6667
548.677	13
547.316	13.3333
545.953	13.6667
544.592	11.3333
543.229	17.3333
541.865	17.6667
540.501	23.3333
539.137	20.6667
537.773	22.3333
536.408	23.3333
535.044	24.3333
533.679	33.3333
532.312	40.3333
530.946	48.3333
529.579	60.6667
528.213	78
526.845	98.6667
525.477	147
524.111	233
522.742	482.333
521.373	1127
520.002	1846
518.633	1570.67
517.263	745.333
515.894	330.667
514.522	184
513.152	116
511.779	79.3333
510.407	68
509.034	43.6667
507.663	40.6667
506.29	34
504.917	27.6667
503.543	23.6667
502.167	22
500.793	22.3333
499.419	18.3333
498.043	18.3333
496.668	17.3333
495.291	20.3333
493.916	16
492.539	15
491.161	14
489.783	13.3333
488.405	9.66667
487.027	12.6667
485.649	11.6667
484.268	11.6667
482.889	10.3333
481.51	10
480.129	12
478.75	12.6667
477.368	10.6667
475.986	9
474.604	8
473.221	13.3333
471.839	10.6667
470.456	9.33333
469.073	10.3333
467.69	7
466.307	8
464.921	4.66667
463.537	8.33333
462.151	4
460.767	7.33333
459.38	8.33333
457.993	8
456.606	5.66667
455.219	7.66667
453.832	7
452.444	9.66667
451.056	9.66667
449.668	8.66667
448.278	8.66667
446.89	7
445.499	9
444.11	12
442.719	5
441.327	7.33333
439.936	6.66667
438.544	11
437.152	11
435.76	8
434.367	5.33333
432.975	10.3333
431.579	8
430.186	7.66667
428.791	8.33333
427.398	5.33333
426.002	11
424.606	10.6667
423.211	11.3333
421.815	12
420.418	9.66667
419.021	8.33333
417.624	9.66667
416.225	11
414.827	7.33333
413.43	8.66667
412.029	7.66667
410.631	8
409.231	10
407.83	11.6667
406.429	10
405.03	11
403.629	7.33333
402.227	5
400.825	10.3333
399.421	6.33333
398.019	7.33333
396.617	6.33333
395.212	6.66667
393.809	10.6667
392.404	8
391	9.33333
389.595	8.33333
388.189	11
386.783	7.33333
385.377	9.66667
383.97	10.3333
382.563	6.66667
381.157	8.33333
379.747	6.66667
378.34	9.33333
376.932	8
375.522	8.66667
374.112	13
372.704	11
371.294	3.33333
369.883	3.33333
368.472	10.6667
367.061	7.66667
365.649	12
364.238	12.3333
362.826	9.33333
361.411	8.66667
359.999	13
358.585	10
357.172	11.6667
355.757	6.33333
354.342	5.66667
352.928	8.66667
351.513	10.6667
350.097	11.3333
348.68	11.3333
347.264	9.33333
345.845	8.66667
344.429	6.33333
343.012	11.6667
341.948	8.33333

File: W3L150_10_bottom.txt
692.206	2.33333
690.885	0.666667
689.564	-0.666667
688.241	3.33333
686.917	0.666667
685.596	1
684.272	-0.333333
682.948	1.33333
681.624	-1.33333
680.299	3.33333
678.975	2.33333
677.65	1.66667
676.323	1
674.998	1.66667
673.67	2
672.344	2.33333
671.017	2.33333
669.689	1
668.362	3
667.034	2
665.705	3
664.376	1.66667
663.045	2
661.716	6
660.387	2.66667
659.055	0.333333
657.725	1.33333
656.393	-0.666667
655.063	4.66667
653.73	2.33333
652.398	0.666667
651.065	3
649.732	1
648.399	0
647.065	3.33333
645.729	2.66667
644.396	0
643.062	0.666667
641.725	0.666667
640.389	3.66667
639.054	1
637.717	2.66667
636.38	3
635.043	2
633.705	1
632.368	4
631.03	2
629.689	5.33333
628.351	2.33333
627.011	1.66667
625.672	1.33333
624.331	2.66667
622.99	3.66667
621.651	2.66667
620.309	1.33333
618.967	1.66667
617.625	4.66667
616.281	4.33333
614.939	1.33333
613.596	4
612.251	1.66667
610.908	4.33333
609.563	0.333333
608.22	1.66667
606.874	4
605.528	4.33333
604.182	2
602.836	3.33333
601.49	4.66667
600.143	-1
598.794	1.66667
597.447	3.33333
596.1	5.66667
594.75	2
593.403	2
592.053	-0.666667
590.703	2.33333
589.353	2.66667
588.002	2.66667
586.651	4.33333
585.3	0.333333
583.949	2
582.598	4.33333
581.244	0.666667
579.893	3.33333
578.539	3.33333
577.187	2.33333
575.832	2.66667
574.478	2
573.123	2
571.768	4
570.413	2.33333
569.057	3.33333
567.702	1.33333
566.346	3.66667
564.988	1.33333
563.632	2.66667
562.273	4.33333
560.916	0.333333
559.558	2.66667
558.198	4.66667
556.839	4.66667
555.48	6
554.12	6.66667
552.76	4.66667
551.4	4
550.039	6
548.677	2.66667
547.316	3
545.953	8.66667
544.592	7
543.229	9
541.865	10.6667
540.501	11
539.137	12.3333
537.773	12
536.408	12.3333
535.044	15
533.679	20.3333
532.312	21.6667
530.946	28.3333
529.579	30.6667
528.213	43.6667
526.845	59.3333
525.477	94.3333
524.111	158.333
522.742	306.667
521.373	675.667
520.002	1159.67
518.633	1157
517.263	604
515.894	258
514.522	145
513.152	91.3333
511.779	56.6667
510.407	42.3333
509.034	31.3333
507.663	27
506.29	18.3333
504.917	17.3333
503.543	7.66667
502.167	10.3333
500.793	9.66667
499.419	6.66667
498.043	10
496.668	8.66667
495.291	9.33333
493.916	1
492.539	5
491.161	9
489.783	7.33333
488.405	7.33333
487.027	2
485.649	5.66667
484.268	4.33333
482.889	4
481.51	5
480.129	5.66667
478.75	5.66667
477.368	3.33333
475.986	4.33333
474.604	3
473.221	0.333333
471.839	5
470.456	3.66667
469.073	5
467.69	5
466.307	2.66667
464.921	4.66667
463.537	2
462.151	1
460.767	3
459.38	1
457.993	1.66667
456.606	0.666667
455.219	2.66667
453.832	2.33333
452.444	-1
451.056	3.66667
449.668	2
448.278	4.33333
446.89	5
445.499	1.33333
444.11	4
442.719	2
441.327	1.33333
439.936	2.66667
438.544	2.66667
437.152	2.33333
435.76	6
434.367	2
432.975	3.66667
431.579	4
430.186	3.66667
428.791	3.33333
427.398	3.66667
426.002	4
424.606	4
423.211	4
421.815	2.33333
420.418	4
419.021	4.66667
417.624	5.66667
416.225	5.33333
414.827	2.33333
413.43	1.33333
412.029	2.66667
410.631	4
409.231	-0.333333
407.83	2.66667
406.429	3
405.03	-1
403.629	2
402.227	1
400.825	1
399.421	2
398.019	3
396.617	2.66667
395.212	4.33333
393.809	3
392.404	2
391	2.66667
389.595	2.66667
388.189	-0.333333
386.783	1.33333
385.377	0
383.97	3.66667
382.563	3
381.157	2
379.747	1.66667
378.34	1.33333
376.932	1.66667
375.522	2.66667
374.112	2.66667
372.704	2
371.294	3.33333
369.883	3.33333
368.472	2.33333
367.061	5.33333
365.649	2.66667
364.238	2.66667
362.826	2.66667
361.411	4.33333
359.999	1.66667
358.585	3.33333
357.172	2.66667
355.757	4
354.342	0
352.928	4
351.513	3
350.097	1.33333
348.68	5.66667
347.264	2.66667
345.845	4
344.429	5
343.012	1.66667
341.948	3

File: W3L150_10_top.txt
692.206	7.33333
690.885	7.66667
689.564	6.33333
688.241	5.66667
686.917	8.66667
685.596	6
684.272	5
682.948	9
681.624	7.66667
680.299	5.66667
678.975	7.33333
677.65	9
676.323	9.33333
674.998	10.6667
673.67	6
672.344	10
671.017	7.33333
669.689	6
668.362	7.33333
667.034	8
665.705	6.33333
664.376	9.66667
663.045	8.33333
661.716	11.3333
660.387	9.33333
659.055	5.66667
657.725	5
656.393	7.33333
655.063	3
653.73	6.33333
652.398	8.33333
651.065	6
649.732	5
648.399	7.66667
647.065	7.66667
645.729	7
644.396	6
643.062	9
641.725	7
640.389	7
639.054	5.33333
637.717	11.6667
636.38	7
635.043	9
633.705	7.33333
632.368	6
631.03	4.33333
629.689	9
628.351	10.3333
627.011	8.66667
625.672	6.66667
624.331	8.66667
622.99	11
621.651	9.66667
620.309	9.66667
618.967	8
617.625	7
616.281	11.6667
614.939	11
613.596	10.6667
612.251	8.66667
610.908	10.6667
609.563	8
608.22	6.33333
606.874	8
605.528	10.3333
604.182	8.33333
602.836	9.33333
601.49	9
600.143	9.33333
598.794	7
597.447	5
596.1	8
594.75	6
593.403	9.66667
592.053	7.33333
590.703	7.33333
589.353	9
588.002	10.6667
586.651	7
585.3	5
583.949	8.66667
582.598	9
581.244	7.66667
579.893	8.33333
578.539	7
577.187	10.3333
575.832	6.33333
574.478	5.66667
573.123	7
571.768	5
570.413	11.6667
569.057	7.33333
567.702	8
566.346	11
564.988	4.33333
563.632	8.66667
562.273	6.66667
560.916	6.66667
559.558	9
558.198	8
556.839	11
555.48	9.33333
554.12	12
552.76	11.6667
551.4	9
550.039	9.33333
548.677	11.3333
547.316	9.66667
545.953	13.3333
544.592	15
543.229	12.6667
541.865	13
540.501	17
539.137	13.6667
537.773	16.3333
536.408	18
535.044	25
533.679	21.3333
532.312	27.6667
530.946	34
529.579	42.3333
528.213	47.6667
526.845	69.6667
525.477	104.333
524.111	175
522.742	348.667
521.373	757.667
520.002	1282.33
518.633	1312.67
517.263	680
515.894	303.333
514.522	158.667
513.152	107.333
511.779	68
510.407	58
509.034	41.3333
507.663	34.3333
506.29	26.6667
504.917	23
503.543	24
502.167	21.3333
500.793	16.3333
499.419	18
498.043	14.3333
496.668	12.3333
495.291	13.6667
493.916	14.6667
492.539	14.6667
491.161	12.6667
489.783	12.3333
488.405	12.3333
487.027	10
485.649	14
484.268	10.6667
482.889	10.6667
481.51	8.66667
480.129	10
478.75	6.33333
477.368	10.3333
475.986	9.66667
474.604	9
473.221	6.66667
471.839	7.66667
470.456	4.66667
469.073	5
467.69	4.66667
466.307	6.33333
464.921	5
463.537	9.33333
462.151	4
460.767	7
459.38	5.33333
457.993	5.66667
456.606	11.6667
455.219	6.33333
453.832	8.33333
452.444	8
451.056	7
449.668	8.66667
448.278	6
446.89	9.33333
445.499	10
444.11	5.66667
442.719	7.33333
441.327	8.66667
439.936	9.33333
438.544	9.66667
437.152	7.33333
435.76	9.66667
434.367	7.33333
432.975	7
431.579	7
430.186	6.33333
428.791	7.33333
427.398	5.66667
426.002	7.33333
424.606	7.33333
423.211	8
421.815	8.66667
420.418	6.33333
419.021	7.66667
417.624	7.33333
416.225	8.33333
414.827	9
413.43	7.33333
412.029	8.66667
410.631	7.66667
409.231	1.33333
407.83	6.66667
406.429	8.33333
405.03	5
403.629	7.66667
402.227	9
400.825	9.33333
399.421	8.66667
398.019	8.33333
396.617	9.33333
395.212	7
393.809	6.33333
392.404	6
391	11
389.595	5.33333
388.189	6
386.783	7.33333
385.377	9
383.97	8.33333
382.563	10
381.157	8.66667
379.747	9.66667
378.34	5.66667
376.932	6
375.522	8.33333
374.112	7
372.704	8.33333
371.294	8
369.883	8.66667
368.472	8.33333
367.061	8
365.649	7.66667
364.238	7.33333
362.826	8
361.411	8
359.999	7
358.585	9.66667
357.172	5.33333
355.757	8
354.342	9.66667
352.928	9
351.513	6
350.097	5.66667
348.68	11
347.264	7
345.845	7.66667
344.429	8.33333
343.012	9.33333
341.948	7

File: W3L150_11_bottom.txt
692.206	-0.333333
690.885	2.66667
689.564	2.66667
688.241	1
686.917	2.33333
685.596	1.33333
684.272	1.66667
682.948	2.66667
681.624	2.33333
680.299	1
678.975	2.33333
677.65	2
676.323	1.33333
674.998	2
673.67	1.33333
672.344	2
671.017	3
669.689	3.33333
668.362	6
667.034	3.33333
665.705	2.33333
664.376	3.66667
663.045	2.66667
661.716	1.33333
660.387	1.33333
659.055	2
657.725	2.66667
656.393	3.33333
655.063	4.33333
653.73	3
652.398	2.33333
651.065	2.66667
649.732	4.33333
648.399	3.66667
647.065	5
645.729	0
644.396	4
643.062	1.33333
641.725	2
640.389	-0.333333
639.054	2.66667
637.717	2
636.38	4.33333
635.043	3.66667
633.705	4
632.368	1
631.03	5.66667
629.689	-0.666667
628.351	3.66667
627.011	4.33333
625.672	5
624.331	4.66667
622.99	6
621.651	3.66667
620.309	2
618.967	6
617.625	6.33333
616.281	5.33333
614.939	3
613.596	4.33333
612.251	6.33333
610.908	4
609.563	4.66667
608.22	-0.333333
606.874	1.66667
605.528	3.33333
604.182	3
602.836	3
601.49	2.33333
600.143	0
598.794	3.66667
597.447	3.66667
596.1	2
594.75	1.33333
593.403	2
592.053	3
590.703	1
589.353	2
588.002	2.66667
586.651	2.66667
585.3	2
583.949	1.66667
582.598	4
581.244	4.66667
579.893	3
578.539	1.66667
577.187	1.66667
575.832	-1.33333
574.478	3.33333
573.123	3
571.768	5.33333
570.413	3.66667
569.057	3.66667
567.702	4
566.346	4.33333
564.988	2.66667
563.632	1.33333
562.273	1
560.916	4
559.558	4.33333
558.198	6.66667
556.839	5.33333
555.48	3.33333
554.12	4.66667
552.76	9.33333
551.4	6.33333
550.039	9.66667
548.677	6
547.316	9.33333
545.953	8
544.592	12.3333
543.229	9
541.865	15
540.501	13.3333
539.137	12
537.773	18.3333
536.408	20.3333
535.044	22.3333
533.679	27
532.312	25.6667
530.946	37.6667
529.579	38.6667
528.213	59
526.845	88
525.477	124.667
524.111	201
522.742	417.333
521.373	914.667
520.002	1443.67
518.633	1474
517.263	891.333
515.894	397.333
514.522	210.333
513.152	116.667
511.779	75.6667
510.407	52.3333
509.034	43.3333
507.663	30.6667
506.29	28
504.917	21.6667
503.543	19
502.167	16
500.793	16.3333
499.419	12.3333
498.043	12
496.668	10
495.291	8.66667
493.916	11
492.539	9
491.161	6
489.783	9
488.405	7
487.027	8.66667
485.649	4
484.268	6.66667
482.889	7
481.51	4.66667
480.129	3.66667
478.75	3.33333
477.368	6
475.986	5
474.604	1.33333
473.221	4.33333
471.839	1.33333
470.456	3.66667
469.073	5.33333
467.69	2.33333
466.307	5
464.921	5
463.537	1.66667
462.151	-0.333333
460.767	2.33333
459.38	2.66667
457.993	2.33333
456.606	3
455.219	5.33333
453.832	3
452.444	2
451.056	2.33333
449.668	7.66667
448.278	1.33333
446.89	2.33333
445.499	2
444.11	3
442.719	3.66667
441.327	4.66667
439.936	4.33333
438.544	2.66667
437.152	5.33333
435.76	5.33333
434.367	0.666667
432.975	3.33333
431.579	7
430.186	4.66667
428.791	3
427.398	3.33333
426.002	4
424.606	2.33333
423.211	-1
421.815	3.66667
420.418	6
419.021	-1
417.624	5.33333
416.225	3
414.827	3.33333
413.43	3
412.029	3.66667
410.631	4.66667
409.231	2.33333
407.83	4.66667
406.429	5.33333
405.03	5
403.629	1
402.227	5.66667
400.825	4.33333
399.421	4.33333
398.019	1
396.617	5
395.212	4.66667
393.809	1
392.404	3.33333
391	2.33333
389.595	1.66667
388.189	5.66667
386.783	3
385.377	5.33333
383.97	1.66667
382.563	3
381.157	3.66667
379.747	4.66667
378.34	3.33333
376.932	3
375.522	5
374.112	5
372.704	5.33333
371.294	3.66667
369.883	4.33333
368.472	2
367.061	3.66667
365.649	2.66667
364.238	5.33333
362.826	4
361.411	4.66667
359.999	7
358.585	5.33333
357.172	3.66667
355.757	6.66667
354.342	5.33333
352.928	5.33333
351.513	3.33333
350.097	5.66667
348.68	6.33333
347.264	3
345.845	6.66667
344.429	4.33333
343.012	4.33333
341.948	3