Folder: pypi-mirror-373/packages/dopes/dopes-2025.1.0.tar.gz/dopes-2025.1.0/examples/data_analysis/raman_silicon/data/514nm_1%_15s

Note: README.md
# PyPI code 373

This repository is part of a project to make all code in PyPI as accessible as possible. For more information 
on the project and to find out how to utilise this data, see the website: https://py-code.org/

This repo contains 42561 packages uploaded to PyPI between 
2025-08-29 19:37 and 2025-09-02 22:39.

The repo is 88% (37780/42561) complete.

Package contents can be found [in the code branch](https://github.com/pypi-data/pypi-mirror-373/tree/code/packages).

A browsable package list for all repositories [all packages here](https://py-code.org/repositories/pypi-mirror-373).

File: W3L150_1_bottom.txt
692.206	-4.66667
690.885	-3.66667
689.564	-4
688.241	-3.33333
686.917	-3.66667
685.596	-3
684.272	-2
682.948	-4.33333
681.624	-5
680.299	-1.66667
678.975	-3.66667
677.65	-4
676.323	-4.33333
674.998	-2.33333
673.67	-2.66667
672.344	0.666667
671.017	-1
669.689	-3.66667
668.362	1.66667
667.034	-4.33333
665.705	-1.66667
664.376	-3.33333
663.045	-1
661.716	-2.33333
660.387	-4.66667
659.055	0.333333
657.725	-0.333333
656.393	0
655.063	-0.333333
653.73	-5.33333
652.398	-1
651.065	-1.66667
649.732	-3.33333
648.399	-0.333333
647.065	-2
645.729	-3.66667
644.396	-1
643.062	-1.33333
641.725	-1.66667
640.389	-2
639.054	-0.333333
637.717	0.333333
636.38	-1.66667
635.043	-2.66667
633.705	-2.33333
632.368	1
631.03	-0.333333
629.689	-0.333333
628.351	-1.66667
627.011	0
625.672	-2.33333
624.331	-2.66667
622.99	0.666667
621.651	-0.666667
620.309	-1.66667
618.967	1.33333
617.625	0.333333
616.281	-2
614.939	-0.333333
613.596	0
612.251	-0.666667
610.908	-2.33333
609.563	0.333333
608.22	-0.666667
606.874	-1.66667
605.528	-1.66667
604.182	-1.66667
602.836	1.33333
601.49	-1.66667
600.143	-2.33333
598.794	-1.66667
597.447	-3.66667
596.1	-3
594.75	-3
593.403	-0.333333
592.053	-1
590.703	-0.333333
589.353	0.666667
588.002	-4
586.651	0
585.3	0.666667
583.949	-1.33333
582.598	-4
581.244	-2.66667
579.893	-1
578.539	-0.666667
577.187	1.33333
575.832	-1.66667
574.478	-0.666667
573.123	-2
571.768	-1.33333
570.413	-1.33333
569.057	-1.66667
567.702	-0.333333
566.346	1.33333
564.988	-2.66667
563.632	2.66667
562.273	0.333333
560.916	-2.33333
559.558	-0.333333
558.198	-1
556.839	2
555.48	-0.666667
554.12	0
552.76	5.33333
551.4	2
550.039	3.66667
548.677	3.33333
547.316	4.33333
545.953	5.66667
544.592	7.33333
543.229	2.66667
541.865	6.33333
540.501	7.33333
539.137	8.66667
537.773	7.66667
536.408	14.6667
535.044	14.3333
533.679	18.3333
532.312	22
530.946	28
529.579	33.6667
528.213	52.6667
526.845	72.3333
525.477	114.667
524.111	209.667
522.742	430
521.373	1009.67
520.002	1440
518.633	830.667
517.263	358
515.894	178
514.522	95
513.152	58.6667
511.779	47.3333
510.407	31.6667
509.034	24.6667
507.663	23.3333
506.29	17.6667
504.917	12.3333
503.543	11
502.167	10
500.793	8.66667
499.419	4.66667
498.043	5.33333
496.668	2.33333
495.291	3.66667
493.916	3.33333
492.539	4.33333
491.161	5
489.783	3
488.405	4.66667
487.027	1.66667
485.649	1.66667
484.268	2.33333
482.889	-0.333333
481.51	0.333333
480.129	0.666667
478.75	-1
477.368	1
475.986	1
474.604	-0.333333
473.221	-0.333333
471.839	-1.66667
470.456	-1.66667
469.073	1
467.69	-0.333333
466.307	1
464.921	-3.66667
463.537	0.333333
462.151	-1.33333
460.767	-0.666667
459.38	-3.33333
457.993	-2.66667
456.606	-0.666667
455.219	-2
453.832	-1.33333
452.444	0
451.056	-1.66667
449.668	0
448.278	-1.66667
446.89	-0.333333
445.499	-1.33333
444.11	-1.66667
442.719	3.33333
441.327	-1.66667
439.936	-1.66667
438.544	-2.33333
437.152	0.666667
435.76	1.33333
434.367	0
432.975	-1.33333
431.579	-1
430.186	0
428.791	-4.33333
427.398	-3
426.002	0
424.606	-2.33333
423.211	1
421.815	-2.33333
420.418	-1
419.021	-2
417.624	-0.666667
416.225	-4.33333
414.827	0
413.43	-0.666667
412.029	-0.666667
410.631	2.33333
409.231	0.333333
407.83	0
406.429	-0.333333
405.03	0.666667
403.629	-2.66667
402.227	1.33333
400.825	-1
399.421	0.333333
398.019	-1
396.617	-4
395.212	-1
393.809	-1.33333
392.404	-0.333333
391	-0.666667
389.595	0.333333
388.189	0.333333
386.783	0.333333
385.377	-2
383.97	-2
382.563	-0.666667
381.157	-0.666667
379.747	-5
378.34	-2.66667
376.932	-1
375.522	-2.33333
374.112	0
372.704	0
371.294	0
369.883	-3
368.472	-1
367.061	-1.66667
365.649	-1
364.238	-3.66667
362.826	-2.33333
361.411	-1.66667
359.999	-2
358.585	0.666667
357.172	0.666667
355.757	-3
354.342	-1.33333
352.928	-0.333333
351.513	1.33333
350.097	0.333333
348.68	0.333333
347.264	0.333333
345.845	1
344.429	1
343.012	0.666667
341.948	-1.33333

File: W3L150_1_top.txt
692.206	8
690.885	10.6667
689.564	9.33333
688.241	7.33333
686.917	5.33333
685.596	10.3333
684.272	10.6667
682.948	11
681.624	5
680.299	12.3333
678.975	6.66667
677.65	6.66667
676.323	7.66667
674.998	10.6667
673.67	8.66667
672.344	8
671.017	7
669.689	11
668.362	6.33333
667.034	10.3333
665.705	11
664.376	9.33333
663.045	6
661.716	12
660.387	7.66667
659.055	9.33333
657.725	8
656.393	9.66667
655.063	11.3333
653.73	6.66667
652.398	3.66667
651.065	8.33333
649.732	6.33333
648.399	6.66667
647.065	5.66667
645.729	5.33333
644.396	9.66667
643.062	9
641.725	9.66667
640.389	10.3333
639.054	9.66667
637.717	5
636.38	7.66667
635.043	9.66667
633.705	9
632.368	5.33333
631.03	8
629.689	9.66667
628.351	7
627.011	10
625.672	10.3333
624.331	8
622.99	8.66667
621.651	7.33333
620.309	12.6667
618.967	10.3333
617.625	7.33333
616.281	11.3333
614.939	7
613.596	11
612.251	10
610.908	10.3333
609.563	6.33333
608.22	10.3333
606.874	8.66667
605.528	10.6667
604.182	10
602.836	9
601.49	8.66667
600.143	10
598.794	8
597.447	7.66667
596.1	7.66667
594.75	10.3333
593.403	9
592.053	7
590.703	10.3333
589.353	6.33333
588.002	10
586.651	7.33333
585.3	6.66667
583.949	7.33333
582.598	6.66667
581.244	6
579.893	7.66667
578.539	8.33333
577.187	8.33333
575.832	8.66667
574.478	5.33333
573.123	8.66667
571.768	6
570.413	8
569.057	7
567.702	10.3333
566.346	7.66667
564.988	9.33333
563.632	8.33333
562.273	11
560.916	9
559.558	7
558.198	10
556.839	7
555.48	10.3333
554.12	11.3333
552.76	12
551.4	11.3333
550.039	9.33333
548.677	11
547.316	9.66667
545.953	10.6667
544.592	14.6667
543.229	11.3333
541.865	15.6667
540.501	12
539.137	12.6667
537.773	18.3333
536.408	15.3333
535.044	16.6667
533.679	20.3333
532.312	26.3333
530.946	27.3333
529.579	30.3333
528.213	47
526.845	66.3333
525.477	93
524.111	167.333
522.742	331.667
521.373	750.667
520.002	1006.33
518.633	579.667
517.263	263
515.894	131
514.522	83.3333
513.152	50
511.779	43.3333
510.407	36
509.034	24
507.663	21.3333
506.29	21
504.917	15
503.543	15
502.167	15
500.793	16
499.419	13
498.043	12.3333
496.668	19
495.291	9.66667
493.916	13
492.539	12.3333
491.161	14
489.783	12.3333
488.405	13.6667
487.027	9
485.649	8.33333
484.268	10
482.889	10
481.51	4.33333
480.129	9.33333
478.75	10
477.368	10.6667
475.986	8.66667
474.604	5.66667
473.221	6.33333
471.839	10.3333
470.456	9
469.073	8.33333
467.69	8.66667
466.307	6.33333
464.921	6.33333
463.537	5.33333
462.151	5
460.767	7
459.38	6
457.993	11.3333
456.606	5.33333
455.219	9.33333
453.832	3.66667
452.444	7
451.056	6.33333
449.668	5.33333
448.278	6
446.89	9.33333
445.499	5.33333
444.11	8.33333
442.719	7
441.327	5.66667
439.936	9
438.544	6.66667
437.152	8.66667
435.76	9.33333
434.367	8
432.975	8.33333
431.579	9
430.186	8
428.791	6.66667
427.398	9.66667
426.002	8.66667
424.606	10
423.211	6.33333
421.815	6
420.418	10.3333
419.021	8.33333
417.624	10
416.225	5.66667
414.827	8.33333
413.43	4.66667
412.029	7.33333
410.631	6.66667
409.231	10
407.83	7
406.429	7.33333
405.03	9.33333
403.629	5.33333
402.227	7
400.825	7.33333
399.421	7
398.019	5
396.617	5.66667
395.212	5.33333
393.809	7
392.404	13
391	3.66667
389.595	6
388.189	2.66667
386.783	5.33333
385.377	7.66667
383.97	6.66667
382.563	4.66667
381.157	7.33333
379.747	6.33333
378.34	3
376.932	8
375.522	8.33333
374.112	6
372.704	7.33333
371.294	6.66667
369.883	7
368.472	7.66667
367.061	6.66667
365.649	7.66667
364.238	2
362.826	6
361.411	6
359.999	10.6667
358.585	6.33333
357.172	7.66667
355.757	7.33333
354.342	8.33333
352.928	6.66667
351.513	6
350.097	6
348.68	6
347.264	9.66667
345.845	8.66667
344.429	9.66667
343.012	8.66667
341.948	11

File: W3L150_2_bottom.txt
692.206	2
690.885	1.33333
689.564	3.33333
688.241	5
686.917	1.66667
685.596	3.33333
684.272	2
682.948	3
681.624	6.33333
680.299	5.66667
678.975	4.33333
677.65	0.333333
676.323	2.66667
674.998	3.66667
673.67	6.33333
672.344	6
671.017	3
669.689	4.66667
668.362	4
667.034	3
665.705	1
664.376	1.66667
663.045	-1
661.716	4.66667
660.387	3.66667
659.055	4
657.725	5
656.393	4.33333
655.063	3
653.73	3.66667
652.398	3.66667
651.065	4.66667
649.732	4.33333
648.399	1.66667
647.065	2
645.729	2.33333
644.396	3.66667
643.062	2
641.725	4
640.389	3.66667
639.054	4
637.717	3.33333
636.38	4.66667
635.043	4.33333
633.705	6
632.368	5
631.03	3.66667
629.689	4.66667
628.351	1.66667
627.011	2.33333
625.672	0.333333
624.331	2.33333
622.99	5.33333
621.651	5.66667
620.309	5
618.967	5
617.625	5
616.281	4.66667
614.939	2.33333
613.596	6.33333
612.251	6.33333
610.908	5
609.563	1.33333
608.22	4.66667
606.874	1
605.528	5
604.182	2.66667
602.836	1.33333
601.49	3.33333
600.143	5.66667
598.794	4.66667
597.447	2
596.1	6
594.75	3.66667
593.403	3
592.053	0
590.703	5.66667
589.353	2.66667
588.002	3.66667
586.651	4.66667
585.3	2.66667
583.949	3
582.598	4
581.244	1.33333
579.893	3.33333
578.539	3
577.187	3.33333
575.832	3.66667
574.478	2.66667
573.123	2.66667
571.768	1.33333
570.413	2.66667
569.057	3
567.702	3.33333
566.346	4
564.988	2
563.632	6.33333
562.273	5
560.916	5
559.558	3.66667
558.198	7.66667
556.839	7.66667
555.48	8
554.12	4.33333
552.76	5.66667
551.4	6.33333
550.039	5.33333
548.677	7.66667
547.316	7.66667
545.953	10.6667
544.592	9.66667
543.229	14.6667
541.865	9.66667
540.501	11.3333
539.137	15
537.773	12.6667
536.408	15
535.044	19
533.679	23.3333
532.312	28.3333
530.946	31
529.579	36.6667
528.213	54.6667
526.845	69.3333
525.477	118
524.111	202.333
522.742	431
521.373	1039
520.002	1455.33
518.633	829.333
517.263	345.667
515.894	165.333
514.522	101
513.152	67.6667
511.779	52.3333
510.407	39.3333
509.034	27.3333
507.663	21.3333
506.29	24
504.917	14.6667
503.543	16.6667
502.167	12.3333
500.793	12
499.419	9.33333
498.043	7.33333
496.668	11.6667
495.291	6.33333
493.916	7
492.539	5.66667
491.161	7
489.783	9
488.405	7.66667
487.027	6.33333
485.649	7.66667
484.268	9.33333
482.889	8.66667
481.51	5.66667
480.129	1.66667
478.75	6
477.368	5.66667
475.986	5.33333
474.604	5
473.221	6.33333
471.839	2.33333
470.456	3
469.073	1.33333
467.69	1
466.307	3
464.921	4
463.537	3
462.151	3.33333
460.767	3.33333
459.38	1.33333
457.993	7.33333
456.606	4.66667
455.219	3
453.832	3.33333
452.444	1
451.056	5.66667
449.668	2.33333
448.278	0.666667
446.89	-0.666667
445.499	4.33333
444.11	4.66667
442.719	3
441.327	5
439.936	4
438.544	8.33333
437.152	6.66667
435.76	4.33333
434.367	4
432.975	1.66667
431.579	5.33333
430.186	4
428.791	5.33333
427.398	3.66667
426.002	6.66667
424.606	3.33333
423.211	4
421.815	2.33333
420.418	6
419.021	4
417.624	6.33333
416.225	3
414.827	3
413.43	3.66667
412.029	3.33333
410.631	4.66667
409.231	3.66667
407.83	4.33333
406.429	3.33333
405.03	4.66667
403.629	4.66667
402.227	4.66667
400.825	0.666667
399.421	4
398.019	1.66667
396.617	4.33333
395.212	3.66667
393.809	5
392.404	5.66667
391	4
389.595	6
388.189	2.33333
386.783	0
385.377	4.66667
383.97	5.66667
382.563	7
381.157	5.33333
379.747	2.33333
378.34	4
376.932	4.66667
375.522	2.33333
374.112	1.66667
372.704	7
371.294	6
369.883	3
368.472	4
367.061	6.33333
365.649	5
364.238	5.66667
362.826	3.66667
361.411	4
359.999	6.66667
358.585	4.33333
357.172	3.33333
355.757	3
354.342	4.33333
352.928	5
351.513	3
350.097	6
348.68	4.33333
347.264	5
345.845	6.33333
344.429	2.33333
343.012	2.33333
341.948	5

File: W3L150_2_top.txt
692.206	4.33333
690.885	3.66667
689.564	3.33333
688.241	7
686.917	1.33333
685.596	6.66667
684.272	3.66667
682.948	10
681.624	2.66667
680.299	5.66667
678.975	3.33333
677.65	6.66667
676.323	5.66667
674.998	4
673.67	3.66667
672.344	7
671.017	5
669.689	5
668.362	6.33333
667.034	4.33333
665.705	9.66667
664.376	7
663.045	4.66667
661.716	8.66667
660.387	6
659.055	5.66667
657.725	5.66667
656.393	3.66667
655.063	5
653.73	7.33333
652.398	5.33333
651.065	4.33333
649.732	4.33333
648.399	6.33333
647.065	6.66667
645.729	3.33333
644.396	4
643.062	5.33333
641.725	6
640.389	4.33333
639.054	6
637.717	7
636.38	6
635.043	5.66667
633.705	5.33333
632.368	8
631.03	9.66667
629.689	6
628.351	5.66667
627.011	4
625.672	7.33333
624.331	6.33333
622.99	11.6667
621.651	7.66667
620.309	3
618.967	8.33333
617.625	8.33333
616.281	6.66667
614.939	11
613.596	4.66667
612.251	11
610.908	7.66667
609.563	6
608.22	9
606.874	7
605.528	2.66667
604.182	5.66667
602.836	4.33333
601.49	5.66667
600.143	8.33333
598.794	7
597.447	3
596.1	5
594.75	3.66667
593.403	8.33333
592.053	5.66667
590.703	6
589.353	2
588.002	6
586.651	2.33333
585.3	4.33333
583.949	7.33333
582.598	4.33333
581.244	5
579.893	6.33333
578.539	6.33333
577.187	4.66667
575.832	4
574.478	6.33333
573.123	6
571.768	5.33333
570.413	5
569.057	6.33333
567.702	7.33333
566.346	4.33333
564.988	4
563.632	5.66667
562.273	9.33333
560.916	5.66667
559.558	9
558.198	6.66667
556.839	7.66667
555.48	7.33333
554.12	10.6667
552.76	10
551.4	7.33333
550.039	12
548.677	8.66667
547.316	10.6667
545.953	16.6667
544.592	17.6667
543.229	17.6667
541.865	16
540.501	17.3333
539.137	18.6667
537.773	24.6667
536.408	27.6667
535.044	29.3333
533.679	31
532.312	39
530.946	47
529.579	60.3333
528.213	81
526.845	112.667
525.477	174.333
524.111	306
522.742	616.333
521.373	1517.67
520.002	2170.33
518.633	1239.33
517.263	548
515.894	281
514.522	154
513.152	103
511.779	64.6667
510.407	57.3333
509.034	44.6667
507.663	37.6667
506.29	34
504.917	22.3333
503.543	23.3333
502.167	22
500.793	13.6667
499.419	17
498.043	14.3333
496.668	13
495.291	13.6667
493.916	13.6667
492.539	11.3333
491.161	11
489.783	12
488.405	10
487.027	8.66667
485.649	12.3333
484.268	9.66667
482.889	8.33333
481.51	8
480.129	6.33333
478.75	4.33333
477.368	6
475.986	6.66667
474.604	7.66667
473.221	7.66667
471.839	8.66667
470.456	5
469.073	5.66667
467.69	6.33333
466.307	7.33333
464.921	3
463.537	3.33333
462.151	4
460.767	3
459.38	5
457.993	5
456.606	5
455.219	6.33333
453.832	5.66667
452.444	5.33333
451.056	5.33333
449.668	4.66667
448.278	4
446.89	4.66667
445.499	7.66667
444.11	8
442.719	4.66667
441.327	7.33333
439.936	2.33333
438.544	6.66667
437.152	6
435.76	5
434.367	8
432.975	5
431.579	8.66667
430.186	9.66667
428.791	6.33333
427.398	5.66667
426.002	5.33333
424.606	6.33333
423.211	7
421.815	3.66667
420.418	5
419.021	7
417.624	6
416.225	4.33333
414.827	6
413.43	5.66667
412.029	4.66667
410.631	5.33333
409.231	5.66667
407.83	5
406.429	8
405.03	6
403.629	4
402.227	6
400.825	9.33333
399.421	8
398.019	5.33333
396.617	4.66667
395.212	8.33333
393.809	10
392.404	3.33333
391	2
389.595	5.33333
388.189	7
386.783	5
385.377	5.66667
383.97	9.66667
382.563	4.33333
381.157	6.66667
379.747	8
378.34	5.33333
376.932	7.66667
375.522	4
374.112	6
372.704	7
371.294	9.33333
369.883	6.66667
368.472	4
367.061	7.33333
365.649	8.33333
364.238	6.66667
362.826	2
361.411	3.66667
359.999	11.3333
358.585	7.33333
357.172	6.33333
355.757	3.66667
354.342	10
352.928	6
351.513	8.33333
350.097	6
348.68	8.33333
347.264	7
345.845	5.33333
344.429	8
343.012	8.33333
341.948	4.66667

File: W3L150_3_bottom.txt
692.206	0.666667
690.885	-2.66667
689.564	-1.33333
688.241	1.33333
686.917	-0.666667
685.596	-3
684.272	1
682.948	0
681.624	-1.33333
680.299	-2.33333
678.975	0.666667
677.65	0.333333
676.323	1
674.998	-2.33333
673.67	-0.666667
672.344	-1.33333
671.017	0
669.689	-0.333333
668.362	1
667.034	0.333333
665.705	0.333333
664.376	2.33333
663.045	0.333333
661.716	-1.33333
660.387	-2
659.055	-1
657.725	1
656.393	1
655.063	0
653.73	-3.66667
652.398	-1.33333
651.065	-2
649.732	1.33333
648.399	0.666667
647.065	1.33333
645.729	0.333333
644.396	-1
643.062	-0.666667
641.725	0.333333
640.389	0.333333
639.054	0.666667
637.717	-0.666667
636.38	1.66667
635.043	-1
633.705	0.666667
632.368	-2.66667
631.03	1
629.689	-1.33333
628.351	0.666667
627.011	1.66667
625.672	-3
624.331	1
622.99	1.33333
621.651	1.33333
620.309	2.33333
618.967	0
617.625	0.333333
616.281	2.33333
614.939	-1.33333
613.596	2.66667
612.251	1.33333
610.908	-0.333333
609.563	-1.33333
608.22	-0.666667
606.874	-2
605.528	2
604.182	0
602.836	-2
601.49	-0.333333
600.143	-3.66667
598.794	0
597.447	0.666667
596.1	-2.33333
594.75	-1
593.403	1.66667
592.053	-1
590.703	-0.666667
589.353	-2.33333
588.002	-1.66667
586.651	-0.333333
585.3	0.666667
583.949	-2.66667
582.598	0.333333
581.244	-1.66667
579.893	0.333333
578.539	-4.33333
577.187	-1.33333
575.832	-3
574.478	-1.66667
573.123	0.333333
571.768	-0.666667
570.413	1.66667
569.057	0.333333
567.702	2
566.346	-0.666667
564.988	-1.33333
563.632	3.66667
562.273	1.66667
560.916	-1.33333
559.558	0.333333
558.198	1
556.839	-1.33333
555.48	2.66667
554.12	1.33333
552.76	2.66667
551.4	1
550.039	1
548.677	3.66667
547.316	3.33333
545.953	3.33333
544.592	4.66667
543.229	7.66667
541.865	5
540.501	6
539.137	9.66667
537.773	11
536.408	10
535.044	10.3333
533.679	16.3333
532.312	22
530.946	26.3333
529.579	32.6667
528.213	47
526.845	56.6667
525.477	98.3333
524.111	174.667
522.742	378.333
521.373	908.333
520.002	1302.33
518.633	752
517.263	325.333
515.894	162.333
514.522	95.6667
513.152	60.3333
511.779	46.3333
510.407	29.3333
509.034	24.6667
507.663	16.3333
506.29	18
504.917	11.6667
503.543	6
502.167	6
500.793	4.66667
499.419	6.66667
498.043	5
496.668	5.33333
495.291	6
493.916	3.33333
492.539	4.33333
491.161	2.33333
489.783	5.66667
488.405	0
487.027	0.666667
485.649	2.33333
484.268	2.33333
482.889	2.33333
481.51	2.66667
480.129	2
478.75	0
477.368	3.33333
475.986	0.333333
474.604	1.33333
473.221	-1.66667
471.839	-0.666667
470.456	0.666667
469.073	3
467.69	0.333333
466.307	-0.333333
464.921	-0.666667
463.537	0.666667
462.151	-1
460.767	-1.33333
459.38	2
457.993	-2.66667
456.606	1.33333
455.219	-1.33333
453.832	-0.333333
452.444	-1
451.056	-0.333333
449.668	0.666667
448.278	0.666667
446.89	2
445.499	1.33333
444.11	0
442.719	0.333333
441.327	2.33333
439.936	1.66667
438.544	-1.33333
437.152	5.33333
435.76	1
434.367	1.66667
432.975	0
431.579	3
430.186	1
428.791	0.666667
427.398	0.333333
426.002	-0.666667
424.606	0.666667
423.211	-2
421.815	2.33333
420.418	0
419.021	0
417.624	3
416.225	-0.666667
414.827	0.666667
413.43	-1.66667
412.029	1.33333
410.631	-0.333333
409.231	1.33333
407.83	2
406.429	1
405.03	0.666667
403.629	0
402.227	1.66667
400.825	2
399.421	0.666667
398.019	0
396.617	1
395.212	-1.66667
393.809	1.66667
392.404	1.66667
391	-1.33333
389.595	1.33333
388.189	0
386.783	-0.666667
385.377	1
383.97	2.66667
382.563	-1
381.157	0
379.747	0
378.34	2
376.932	0.333333
375.522	1.33333
374.112	0.333333
372.704	2.33333
371.294	-2
369.883	0.666667
368.472	1.33333
367.061	2.66667
365.649	-3.33333
364.238	-0.333333
362.826	-2.33333
361.411	0
359.999	0
358.585	1
357.172	0.333333
355.757	0.666667
354.342	0.666667
352.928	4.66667
351.513	2
350.097	-0.333333
348.68	0
347.264	3.66667
345.845	1.66667
344.429	0.333333
343.012	1.33333
341.948	1

File: W3L150_3_top.txt
692.206	0.333333
690.885	-0.333333
689.564	-1.66667
688.241	-1
686.917	0.333333
685.596	-2.66667
684.272	0.666667
682.948	0.333333
681.624	2.33333
680.299	1.66667
678.975	-3
677.65	-1
676.323	-1.33333
674.998	2.33333
673.67	0.333333
672.344	1
671.017	0
669.689	-1.33333
668.362	0.333333
667.034	0
665.705	1
664.376	1.66667
663.045	0
661.716	0
660.387	-3.33333
659.055	1.33333
657.725	1
656.393	0.666667
655.063	1
653.73	0.333333
652.398	0.333333
651.065	1.33333
649.732	0.333333
648.399	1
647.065	1
645.729	-2.33333
644.396	1
643.062	-0.333333
641.725	-0.666667
640.389	-0.666667
639.054	-1.66667
637.717	1.66667
636.38	-0.666667
635.043	2.33333
633.705	1
632.368	1.66667
631.03	-1
629.689	1
628.351	0.333333
627.011	-3
625.672	-1.33333
624.331	-0.666667
622.99	1.33333
621.651	0.666667
620.309	1.66667
618.967	0
617.625	1.66667
616.281	0.666667
614.939	2
613.596	3.33333
612.251	1.33333
610.908	2.33333
609.563	2.33333
608.22	2.33333
606.874	-0.333333
605.528	-0.666667
604.182	1.66667
602.836	0.666667
601.49	-1
600.143	1.33333
598.794	-2.33333
597.447	-0.666667
596.1	-0.666667
594.75	0
593.403	0.666667
592.053	-1
590.703	-0.666667
589.353	-1.33333
588.002	-1
586.651	0.333333
585.3	-0.333333
583.949	0
582.598	0
581.244	1.33333
579.893	1
578.539	1.33333
577.187	0.333333
575.832	-2
574.478	0
573.123	-2
571.768	0.666667
570.413	-1.33333
569.057	4
567.702	1
566.346	1.66667
564.988	-1
563.632	-1
562.273	3.33333
560.916	-0.333333
559.558	2.33333
558.198	1
556.839	3.66667
555.48	3.33333
554.12	2.33333
552.76	4
551.4	3
550.039	3
548.677	4.66667
547.316	5.33333
545.953	8.33333
544.592	5.66667
543.229	7
541.865	13
540.501	9.33333
539.137	12.6667
537.773	16.6667
536.408	16.3333
535.044	21.3333
533.679	23.6667
532.312	31.6667
530.946	41
529.579	52.6667
528.213	73
526.845	96
525.477	147.333
524.111	277.667
522.742	577.333
521.373	1364
520.002	2014.33
518.633	1161
517.263	526
515.894	246.667
514.522	144
513.152	97.3333
511.779	68
510.407	43
509.034	36.3333
507.663	30.6667
506.29	21.6667
504.917	19
503.543	18.3333
502.167	16.3333
500.793	12
499.419	12.6667
498.043	4
496.668	7
495.291	7
493.916	6
492.539	5.33333
491.161	4.66667
489.783	5
488.405	6.66667
487.027	3
485.649	3.66667
484.268	3.33333
482.889	1
481.51	4.33333
480.129	1.66667
478.75	1
477.368	3.66667
475.986	2.33333
474.604	0.333333
473.221	2
471.839	3.33333
470.456	0
469.073	-0.333333
467.69	3.33333
466.307	1.33333
464.921	0
463.537	1
462.151	-1.33333
460.767	2
459.38	-1.33333
457.993	0
456.606	0.333333
455.219	0.666667
453.832	-0.333333
452.444	0.666667
451.056	0
449.668	4
448.278	0.666667
446.89	1
445.499	1.33333
444.11	1.66667
442.719	1.66667
441.327	1.66667
439.936	0.666667
438.544	3
437.152	2
435.76	2.66667
434.367	1.66667
432.975	4
431.579	0.333333
430.186	2.66667
428.791	3
427.398	2.33333
426.002	-0.333333
424.606	1
423.211	0.333333
421.815	1.66667
420.418	1.66667
419.021	1
417.624	2
416.225	1
414.827	3.33333
413.43	2.66667
412.029	2
410.631	4.33333
409.231	1.66667
407.83	-0.333333
406.429	2
405.03	1.33333
403.629	0.666667
402.227	-1
400.825	3.33333
399.421	1
398.019	2.33333
396.617	4
395.212	0.333333
393.809	1.33333
392.404	1
391	1.66667
389.595	1.33333
388.189	1.33333
386.783	3.33333
385.377	1
383.97	2.33333
382.563	1.66667
381.157	0.333333
379.747	2.33333
378.34	1.33333
376.932	0.666667
375.522	0.333333
374.112	1.33333
372.704	1.66667
371.294	-0.333333
369.883	3
368.472	0
367.061	1
365.649	1.33333
364.238	2
362.826	0.666667
361.411	3.33333
359.999	7
358.585	2.66667
357.172	0.666667
355.757	2.66667
354.342	3
352.928	0.666667
351.513	4
350.097	0.333333
348.68	2
347.264	4
345.845	0.333333
344.429	3
343.012	3.33333
341.948	4.66667